time	accelerometer_x	accelerometer_y	accelerometer_z	gyroscope_x	gyroscope_y	gyroscope_z	
1	-315	-836	1714	128	-30	15
6	-293	-807	1698	12	42	50
11	-313	-823	1721	12	42	50
16	-329	-836	1691	12	42	50
21	-330	-851	1669	12	42	50
26	-330	-849	1661	12	42	50
31	-315	-840	1630	12	42	50
36	-318	-818	1656	1	55	-20
41	-318	-821	1658	1	55	-20
46	-312	-822	1659	1	55	-20
51	-321	-814	1707	1	55	-20
56	-313	-807	1715	1	55	-20
61	-321	-806	1706	1	55	-20
66	-320	-818	1682	-86	35	-20
71	-327	-826	1697	-86	35	-20
76	-325	-823	1700	-86	35	-20
81	-308	-800	1704	-86	35	-20
86	-306	-784	1690	-86	35	-20
91	-298	-793	1701	-86	35	-20
96	-316	-812	1731	21	99	12
101	-328	-831	1732	21	99	12
106	-332	-842	1712	21	99	12
111	-339	-847	1743	21	99	12
116	-335	-825	1763	21	99	12
121	-345	-820	1740	21	99	12
126	-335	-834	1728	-45	-54	-26
131	-334	-830	1695	-45	-54	-26
136	-341	-828	1708	-45	-54	-26
141	-325	-810	1706	-45	-54	-26
146	-331	-801	1700	-45	-54	-26
151	-331	-810	1676	-45	-54	-26
156	-329	-837	1710	-45	-54	-26
161	-315	-817	1726	-31	6	-70
166	-315	-827	1740	-31	6	-70
171	-327	-828	1728	-31	6	-70
176	-336	-830	1716	-31	6	-70
181	-340	-834	1700	-31	6	-70
186	-340	-834	1675	-31	6	-70
191	-340	-819	1699	-45	3	-14
196	-325	-814	1703	-45	3	-14
201	-322	-809	1714	-45	3	-14
206	-322	-808	1715	-45	3	-14
211	-318	-814	1725	-45	3	-14
216	-327	-816	1745	-45	3	-14
221	-349	-823	1751	-77	25	-2
226	-344	-822	1741	-77	25	-2
231	-339	-832	1737	-77	25	-2
236	-330	-818	1698	-77	25	-2
241	-337	-819	1679	-77	25	-2
246	-334	-833	1656	-77	25	-2
251	-348	-842	1654	-15	-22	0
256	-332	-836	1692	-15	-22	0
261	-322	-810	1738	-15	-22	0
266	-324	-802	1752	-15	-22	0
271	-329	-801	1733	-15	-22	0
276	-336	-821	1705	-15	-22	0
281	-354	-843	1686	-77	48	-79
286	-333	-843	1694	-77	48	-79
291	-326	-816	1693	-77	48	-79
296	-317	-807	1703	-77	48	-79
301	-315	-811	1713	-77	48	-79
306	-323	-832	1676	-77	48	-79
311	-335	-845	1650	-77	48	-79
316	-340	-867	1644	-35	-7	-92
321	-339	-857	1661	-35	-7	-92
326	-313	-846	1673	-35	-7	-92
331	-316	-819	1717	-35	-7	-92
336	-310	-831	1713	-35	-7	-92
341	-323	-829	1699	-35	-7	-92
346	-328	-850	1693	-118	59	-11
351	-340	-855	1696	-118	59	-11
356	-356	-862	1685	-118	59	-11
361	-342	-851	1704	-118	59	-11
366	-342	-848	1692	-118	59	-11
371	-351	-855	1673	-118	59	-11
376	-365	-871	1681	-160	155	-227
381	-353	-855	1672	-160	155	-227
386	-339	-849	1677	-160	155	-227
391	-323	-804	1692	-160	155	-227
396	-304	-758	1705	-160	155	-227
401	-306	-741	1707	-160	155	-227
406	-323	-772	1672	-90	202	-109
411	-334	-801	1674	-90	202	-109
416	-371	-839	1693	-90	202	-109
421	-378	-889	1732	-90	202	-109
426	-373	-885	1761	-90	202	-109
431	-361	-902	1752	-90	202	-109
436	-352	-901	1710	-148	85	-36
441	-355	-884	1683	-148	85	-36
446	-343	-882	1642	-148	85	-36
451	-354	-894	1637	-148	85	-36
456	-349	-910	1623	-148	85	-36
461	-366	-933	1640	-148	85	-36
466	-374	-985	1652	-148	85	-36
471	-371	-981	1693	-19	102	-8
476	-362	-967	1703	-19	102	-8
481	-342	-928	1690	-19	102	-8
486	-322	-897	1684	-19	102	-8
491	-342	-886	1690	-19	102	-8
496	-343	-881	1657	-19	102	-8
501	-362	-895	1657	-63	8	-30
506	-370	-905	1626	-63	8	-30
511	-380	-932	1595	-63	8	-30
516	-381	-926	1581	-63	8	-30
521	-374	-918	1605	-63	8	-30
526	-378	-923	1650	-63	8	-30
531	-362	-930	1706	-14	-31	191
536	-391	-941	1678	-14	-31	191
541	-392	-960	1642	-14	-31	191
546	-407	-953	1600	-14	-31	191
551	-400	-934	1612	-14	-31	191
556	-391	-907	1598	-14	-31	191
561	-358	-863	1613	142	-78	192
566	-349	-846	1652	142	-78	192
571	-348	-849	1687	142	-78	192
576	-365	-884	1679	142	-78	192
581	-355	-919	1634	142	-78	192
586	-355	-947	1561	142	-78	192
591	-360	-984	1459	-241	-58	-8
596	-336	-943	1453	-241	-58	-8
601	-316	-869	1548	-241	-58	-8
606	-311	-787	1664	-241	-58	-8
611	-302	-749	1713	-241	-58	-8
616	-327	-782	1736	-241	-58	-8
621	-361	-833	1723	-241	-58	-8
626	-381	-893	1709	14	-25	72
631	-397	-915	1718	14	-25	72
636	-388	-903	1761	14	-25	72
641	-391	-885	1743	14	-25	72
646	-375	-876	1734	14	-25	72
651	-379	-851	1748	14	-25	72
656	-373	-821	1759	-9	-47	-263
661	-363	-814	1743	-9	-47	-263
666	-376	-791	1735	-9	-47	-263
671	-228	-472	1781	-9	-47	-263
676	-326	-701	1670	-9	-47	-263
681	-309	-858	1524	-9	-47	-263
686	-394	-959	1584	4	-8	58
691	-418	-973	1613	4	-8	58
696	-385	-974	1666	4	-8	58
701	-380	-969	1674	4	-8	58
706	-395	-954	1633	4	-8	58
711	-359	-949	1691	4	-8	58
716	-345	-917	1683	-202	9	110
721	-342	-931	1683	-202	9	110
726	-371	-998	1562	-202	9	110
731	-380	-960	1664	-202	9	110
736	-379	-955	1733	-202	9	110
741	-382	-932	1786	-202	9	110
746	-392	-910	1781	116	-4	21
751	-386	-891	1777	116	-4	21
756	-374	-850	1783	116	-4	21
761	-278	-92	1750	116	-4	21
766	-296	-657	1820	116	-4	21
771	-336	-768	1654	116	-4	21
776	-423	-872	1582	116	-4	21
781	-459	-871	1604	-83	-97	617
786	-469	-840	1672	-83	-97	617
791	-403	-848	1624	-83	-97	617
796	-405	-861	1554	-83	-97	617
801	106	-1527	1602	-83	-97	617
806	-599	-866	1517	-83	-97	617
811	-545	-1048	1633	-47	-114	90
816	-174	-831	1569	-47	-114	90
821	-213	-377	1688	-47	-114	90
826	-315	-688	1657	-47	-114	90
831	-227	-511	1711	-47	-114	90
836	-271	-632	1762	-47	-114	90
841	-315	-643	1707	-128	-462	440
846	-437	-796	1589	-128	-462	440
851	-446	-886	1633	-128	-462	440
856	-450	-851	1625	-128	-462	440
861	-379	-811	1639	-128	-462	440
866	-315	-711	1608	-128	-462	440
871	-335	-767	1540	-879	-413	140
876	-339	-890	1562	-879	-413	140
881	-296	-800	1665	-879	-413	140
886	-308	-845	1647	-879	-413	140
891	-278	-904	1493	-879	-413	140
896	-303	-923	1832	-879	-413	140
901	-276	-949	1840	-304	-30	-624
906	-342	-932	2182	-304	-30	-624
911	-1579	-208	2233	-304	-30	-624
916	104	-525	2526	-304	-30	-624
921	-418	-1151	1160	-304	-30	-624
926	342	173	982	-304	-30	-624
931	-914	-1503	1517	-304	-30	-624
936	-133	-972	1650	-63	-152	186
941	-383	-980	1683	-63	-152	186
946	1458	-1982	1518	-63	-152	186
951	-806	-1033	1655	-63	-152	186
956	-530	-1162	1672	-63	-152	186
961	-216	-1120	1639	-63	-152	186
966	-187	-1050	1481	-51	-473	122
971	-279	-970	1404	-51	-473	122
976	-296	-985	1441	-51	-473	122
981	-313	-980	1426	-51	-473	122
986	-226	-928	1543	-51	-473	122
991	136	-780	1673	-51	-473	122
996	-9	-793	1480	56	-870	-38
1001	53	-1041	1422	56	-870	-38
1006	68	-795	1661	56	-870	-38
1011	-249	-910	1349	56	-870	-38
1016	-217	-888	1325	56	-870	-38
1021	-24	-782	1279	56	-870	-38
1026	259	-708	1202	385	-1452	216
1031	-157	-780	1483	385	-1452	216
1036	-259	-837	1362	385	-1452	216
1041	7	-762	1326	385	-1452	216
1046	-114	-889	1481	385	-1452	216
1051	-226	-1034	1567	385	-1452	216
1056	-294	-1138	1668	330	-592	557
1061	-310	-1144	1715	330	-592	557
1066	-280	-1085	1714	330	-592	557
1071	-116	-934	1758	330	-592	557
1076	-204	-1038	1834	330	-592	557
1081	-451	-1067	1784	330	-592	557
1086	-162	-1154	1933	330	-592	557
1091	-260	-1052	1693	-525	-1565	1149
1096	-470	-1102	1618	-525	-1565	1149
1101	-544	-585	1392	-525	-1565	1149
1106	-260	-1024	701	-525	-1565	1149
1111	137	-558	775	-525	-1565	1149
1116	271	-588	1394	-525	-1565	1149
1121	295	-721	1922	-992	-1429	207
1126	206	-1018	1926	-992	-1429	207
1131	135	-1188	1831	-992	-1429	207
1136	67	-1150	1753	-992	-1429	207
1141	172	-1195	1873	-992	-1429	207
1146	-172	-1341	1691	-992	-1429	207
1151	-340	-1559	1747	-1942	-1077	14
1156	-267	-1385	1295	-1942	-1077	14
1161	138	-726	1023	-1942	-1077	14
1166	844	-710	588	-1942	-1077	14
1171	1066	-757	1126	-1942	-1077	14
1176	706	-651	1664	-1942	-1077	14
1181	513	-1410	1638	516	-713	1686
1186	446	-1115	2156	516	-713	1686
1191	692	-1118	2735	516	-713	1686
1196	434	-1641	3031	516	-713	1686
1201	37	-2776	2023	516	-713	1686
1206	241	-1972	1488	516	-713	1686
1211	266	-2084	1990	-2224	-913	1399
1216	187	-1349	1500	-2224	-913	1399
1221	179	-1183	1497	-2224	-913	1399
1226	200	-1127	1395	-2224	-913	1399
1231	118	-1538	1634	-2224	-913	1399
1236	336	-1902	1773	-2224	-913	1399
1241	491	-1784	1679	-2224	-913	1399
1246	399	-2451	2899	-2271	-1316	1688
1251	498	-1667	1327	-2271	-1316	1688
1256	942	-1581	1178	-2271	-1316	1688
1261	689	-1453	975	-2271	-1316	1688
1266	559	-1432	676	-2271	-1316	1688
1271	462	-1377	500	-2271	-1316	1688
1276	448	-1555	355	-339	-2208	277
1281	564	-1451	413	-339	-2208	277
1286	490	-1618	409	-339	-2208	277
1291	470	-1544	224	-339	-2208	277
1296	849	-1530	142	-339	-2208	277
1301	1156	-2057	494	-339	-2208	277
1306	1211	-2241	449	-318	-2026	17
1311	1175	-2121	350	-318	-2026	17
1316	1450	-1804	321	-318	-2026	17
1321	1288	-1627	100	-318	-2026	17
1326	852	-1297	-109	-318	-2026	17
1331	654	-1053	-98	-318	-2026	17
1336	433	-855	-318	-1139	-2566	-985
1341	-451	-380	-358	-1139	-2566	-985
1346	-1693	295	167	-1139	-2566	-985
1351	-743	484	219	-1139	-2566	-985
1356	406	-1103	340	-1139	-2566	-985
1361	673	-1134	-361	-1139	-2566	-985
1366	633	-1648	-371	-1624	-2987	-1585
1371	889	-1866	-375	-1624	-2987	-1585
1376	1049	-1539	-52	-1624	-2987	-1585
1381	1127	-1068	101	-1624	-2987	-1585
1386	1219	-701	162	-1624	-2987	-1585
1391	1101	-468	138	-1624	-2987	-1585
1396	1264	-428	-87	-1624	-2987	-1585
1401	917	-385	216	-509	-2698	-3514
1406	888	-649	366	-509	-2698	-3514
1411	899	-763	332	-509	-2698	-3514
1416	1059	-602	306	-509	-2698	-3514
1421	1304	-696	210	-509	-2698	-3514
1426	1618	-1197	346	-509	-2698	-3514
1431	2119	-2007	645	-277	-1315	-1171
1436	2501	-2754	758	-277	-1315	-1171
1441	1831	-2975	1120	-277	-1315	-1171
1446	999	-2620	1169	-277	-1315	-1171
1451	1347	-1883	693	-277	-1315	-1171
1456	1716	-1563	294	-277	-1315	-1171
1461	1840	-2029	70	1796	-873	1790
1466	2261	-3100	156	1796	-873	1790
1471	2426	-4515	625	1796	-873	1790
1476	2179	-5614	1303	1796	-873	1790
1481	2072	-6039	1613	1796	-873	1790
1486	2116	-5917	1543	1796	-873	1790
1491	2110	-5779	1374	691	852	6597
1496	2058	-5818	1114	691	852	6597
1501	2181	-6184	917	691	852	6597
1506	2363	-6539	1155	691	852	6597
1511	2458	-6647	1452	691	852	6597
1516	2620	-6497	1727	691	852	6597
1521	2765	-6447	1776	1282	2111	14057
1526	2954	-6704	1535	1282	2111	14057
1531	2830	-7361	1153	1282	2111	14057
1536	3146	-8053	951	1282	2111	14057
1541	3879	-8656	669	1282	2111	14057
1546	4518	-8347	839	1282	2111	14057
1551	5282	-6956	1140	1282	2111	14057
1556	5630	-4408	416	-1779	1350	16470
1561	5499	-2253	-296	-1779	1350	16470
1566	5247	-1339	-629	-1779	1350	16470
1571	4398	-546	-773	-1779	1350	16470
1576	3211	13	-191	-1779	1350	16470
1581	3267	-38	-162	-1779	1350	16470
1586	3301	-126	-105	-2241	-503	16558
1591	3278	-260	-95	-2241	-503	16558
1596	3301	-112	-132	-2241	-503	16558
1601	3318	-76	-100	-2241	-503	16558
1606	3326	-73	-105	-2241	-503	16558
1611	3342	-60	-134	-2241	-503	16558
1616	3332	-84	-121	-1745	-2436	16196
1621	3305	-90	-125	-1745	-2436	16196
1626	3311	-84	-105	-1745	-2436	16196
1631	3266	-66	-106	-1745	-2436	16196
1636	3278	-63	-133	-1745	-2436	16196
1641	3286	-67	-111	-1745	-2436	16196
1646	3306	-52	-118	-826	-3526	16112
1651	3300	-54	-109	-826	-3526	16112
1656	3288	-59	-132	-826	-3526	16112
1661	3271	-48	-126	-826	-3526	16112
1666	3264	-61	-137	-826	-3526	16112
1671	3276	-61	-136	-826	-3526	16112
1676	3264	-66	-119	226	-3629	16111
1681	3268	-58	-124	226	-3629	16111
1686	3262	-64	-125	226	-3629	16111
1691	3264	-61	-144	226	-3629	16111
1696	3262	-64	-129	226	-3629	16111
1701	3253	-64	-128	226	-3629	16111
1706	3247	-70	-139	226	-3629	16111
1711	3257	-78	-138	1044	-2757	16172
1716	3246	-66	-142	1044	-2757	16172
1721	3236	-72	-139	1044	-2757	16172
1726	3232	-75	-138	1044	-2757	16172
1731	3231	-68	-144	1044	-2757	16172
1736	3234	-76	-152	1044	-2757	16172
1741	3216	-74	-143	-20649	-1782	-8482
1746	3214	-72	-137	-20649	-1782	-8482
1751	3211	-68	-131	-20649	-1782	-8482
1756	2676	474	-202	-20649	-1782	-8482
1761	-12795	1532	250	-20649	-1782	-8482
1766	-442	137	265	-20649	-1782	-8482
1771	1302	0	-516	-896	2599	-2110
1776	300	-295	-1333	-896	2599	-2110
1781	-386	-2239	-396	-896	2599	-2110
1786	-1658	-5738	-1104	-896	2599	-2110
1791	317	-1771	1511	-896	2599	-2110
1796	-351	-54	-1441	-896	2599	-2110
1801	-502	-2308	-2472	-1728	36	-3917
1806	-1434	-1432	-2609	-1728	36	-3917
1811	-1660	177	-3247	-1728	36	-3917
1816	-1580	1098	-2509	-1728	36	-3917
1821	-2080	1272	-1790	-1728	36	-3917
1826	-1258	1143	-739	-1728	36	-3917
1831	-1247	989	-617	614	805	-2730
1836	-1068	1094	-676	614	805	-2730
1841	-356	516	-982	614	805	-2730
1846	-172	-1105	-1556	614	805	-2730
1851	-276	-2250	-1237	614	805	-2730
1856	354	-2252	-390	614	805	-2730
1861	765	-2221	82	614	805	-2730
1866	649	-1734	262	1281	2081	-2998
1871	417	-1110	539	1281	2081	-2998
1876	932	-695	663	1281	2081	-2998
1881	285	-9	294	1281	2081	-2998
1886	511	-121	-50	1281	2081	-2998
1891	962	-1044	-1266	1281	2081	-2998
1896	1407	-1901	-2633	3141	1491	-4322
1901	1560	-2287	-2476	3141	1491	-4322
1906	967	-1964	-1293	3141	1491	-4322
1911	749	-1314	-788	3141	1491	-4322
1916	1020	-875	-411	3141	1491	-4322
1921	1253	-734	-499	3141	1491	-4322
1926	1401	-820	-683	1562	262	-2393
1931	1344	-1202	-276	1562	262	-2393
1936	1287	-2382	391	1562	262	-2393
1941	87	-2774	-370	1562	262	-2393
1946	389	-3734	-811	1562	262	-2393
1951	1332	-3171	-1060	1562	262	-2393
1956	1622	-2755	-497	793	236	-2538
1961	1714	-2670	169	793	236	-2538
1966	2003	-2861	438	793	236	-2538
1971	2170	-2830	522	793	236	-2538
1976	2684	-3025	700	793	236	-2538
1981	3154	-3036	656	793	236	-2538
1986	2894	-2638	203	1050	-2010	-2783
1991	3365	-2664	-271	1050	-2010	-2783
1996	2570	-2678	-456	1050	-2010	-2783
2001	1238	-1576	-161	1050	-2010	-2783
2006	977	-976	-445	1050	-2010	-2783
2011	2144	-1761	-1598	1050	-2010	-2783
2016	2097	-3312	-2191	1050	-2010	-2783
2021	1362	-3477	-782	802	-672	805
2026	1684	-3710	384	802	-672	805
2031	1915	-4371	1283	802	-672	805
2036	1906	-4533	2076	802	-672	805
2041	2067	-4343	2212	802	-672	805
2046	2165	-3967	2042	802	-672	805
2051	2287	-4027	1825	715	1389	3386
2056	2389	-4446	1713	715	1389	3386
2061	2491	-4757	1896	715	1389	3386
2066	2617	-4851	1938	715	1389	3386
2071	2748	-5066	1792	715	1389	3386
2076	2886	-5413	1667	715	1389	3386
2081	3072	-5724	1382	381	3760	8945
2086	3233	-6033	938	381	3760	8945
2091	3504	-6466	1000	381	3760	8945
2096	3626	-6572	1796	381	3760	8945
2101	3796	-6438	2686	381	3760	8945
2106	4248	-6306	2994	381	3760	8945
2111	4594	-5507	3501	-6714	4497	12737
2116	5206	-4882	3390	-6714	4497	12737
2121	5442	-4213	2712	-6714	4497	12737
2126	5270	-3232	1693	-6714	4497	12737
2131	4623	-1653	627	-6714	4497	12737
2136	4220	-1277	205	-6714	4497	12737
2141	3133	-1072	-100	-7709	-1709	13480
2146	2478	-435	-54	-7709	-1709	13480
2151	2209	10	-57	-7709	-1709	13480
2156	2236	-157	30	-7709	-1709	13480
2161	2297	-57	-116	-7709	-1709	13480
2166	2254	-56	-58	-7709	-1709	13480
2171	2266	-55	-68	-7709	-1709	13480
2176	2236	-21	1	-6870	-7329	11419
2181	2242	-32	-109	-6870	-7329	11419
2186	2255	-51	-110	-6870	-7329	11419
2191	2271	-34	-195	-6870	-7329	11419
2196	2297	-70	-98	-6870	-7329	11419
2201	2266	-74	-53	-6870	-7329	11419
2206	2258	-83	-117	-5349	-10987	8116
2211	2295	-45	-114	-5349	-10987	8116
2216	2291	-40	-91	-5349	-10987	8116
2221	2289	-38	-112	-5349	-10987	8116
2226	2279	-63	-113	-5349	-10987	8116
2231	2277	-47	-99	-5349	-10987	8116
2236	2280	-35	-95	-3934	-12673	4851
2241	2281	-38	-123	-3934	-12673	4851
2246	2271	-21	-110	-3934	-12673	4851
2251	2274	-33	-105	-3934	-12673	4851
2256	2263	-36	-100	-3934	-12673	4851
2261	2274	-38	-113	-3934	-12673	4851
2266	2267	-28	-110	-3201	-13481	2313
2271	2260	-25	-100	-3201	-13481	2313
2276	2259	-25	-110	-3201	-13481	2313
2281	2259	-35	-120	-3201	-13481	2313
2286	2253	-33	-130	-3201	-13481	2313
2291	2259	-24	-115	-3201	-13481	2313
2296	2248	-34	-115	-2930	-13612	-108
2301	2252	-28	-115	-2930	-13612	-108
2306	2246	-18	-112	-2930	-13612	-108
2311	2253	-20	-115	-2930	-13612	-108
2316	2238	-24	-124	-2930	-13612	-108
2321	2234	-26	-114	-2930	-13612	-108
2326	2237	-26	-125	-2930	-13612	-108
2331	2227	-23	-132	25515	-17412	490
2336	2217	-26	-124	25515	-17412	490
2341	2204	-32	-135	25515	-17412	490
2346	2202	-29	-147	25515	-17412	490
2351	2678	737	-4255	25515	-17412	490
2356	3348	2936	-6999	25515	-17412	490
2361	1036	980	-6671	673	3290	620
2366	-2026	1234	-15	673	3290	620
2371	539	4493	-394	673	3290	620
2376	528	-681	1644	673	3290	620
2381	752	82	617	673	3290	620
2386	189	-1917	-1127	673	3290	620
2391	511	-389	-1168	-4234	2275	1407
2396	17	139	-1494	-4234	2275	1407
2401	595	-335	-2480	-4234	2275	1407
2406	453	113	-2447	-4234	2275	1407
2411	532	615	-1833	-4234	2275	1407
2416	381	1137	-1079	-4234	2275	1407
2421	367	1495	-664	-6798	3116	1418
2426	426	1532	-282	-6798	3116	1418
2431	686	1394	-46	-6798	3116	1418
2436	645	1147	-213	-6798	3116	1418
2441	208	1304	-516	-6798	3116	1418
2446	77	1515	-602	-6798	3116	1418
2451	355	1372	-682	-10680	708	3184
2456	727	1191	-1010	-10680	708	3184
2461	896	832	-1187	-10680	708	3184
2466	465	764	-1258	-10680	708	3184
2471	1052	570	-1098	-10680	708	3184
2476	1131	728	-799	-10680	708	3184
2481	1170	1034	-689	-10680	708	3184
2486	1551	2293	-747	-1786	-2095	3945
2491	1105	2511	73	-1786	-2095	3945
2496	2093	2004	106	-1786	-2095	3945
2501	2978	2210	659	-1786	-2095	3945
2506	2976	2457	1028	-1786	-2095	3945
2511	2327	2215	961	-1786	-2095	3945
2516	1755	2026	863	-1854	-1068	4284
2521	1614	2155	695	-1854	-1068	4284
2526	1736	2344	520	-1854	-1068	4284
2531	1981	2596	499	-1854	-1068	4284
2536	2291	2834	719	-1854	-1068	4284
2541	2548	3103	790	-1854	-1068	4284
2546	2792	3421	566	967	85	809
2551	2793	3728	278	967	85	809
2556	2968	4460	536	967	85	809
2561	2664	4740	990	967	85	809
2566	1851	4448	549	967	85	809
2571	1542	4007	338	967	85	809
2576	1581	3595	178	777	244	-1072
2581	1561	3476	325	777	244	-1072
2586	1687	3672	315	777	244	-1072
2591	1801	4172	279	777	244	-1072
2596	1803	4813	357	777	244	-1072
2601	1930	5308	590	777	244	-1072
2606	2173	5742	1081	2290	1105	-7054
2611	2493	5981	1557	2290	1105	-7054
2616	3107	6163	1721	2290	1105	-7054
2621	3517	6400	1412	2290	1105	-7054
2626	3579	6616	668	2290	1105	-7054
2631	3775	6830	-485	2290	1105	-7054
2636	4084	6378	-1339	2290	1105	-7054
2641	4275	5307	-1471	-196	-481	-11206
2646	4343	4614	-1174	-196	-481	-11206
2651	4315	4401	-505	-196	-481	-11206
2656	4211	4614	-32	-196	-481	-11206
2661	4628	5239	169	-196	-481	-11206
2666	5101	5595	152	-196	-481	-11206
2671	5640	5687	-295	-4323	2888	-18314
2676	6073	4102	-276	-4323	2888	-18314
2681	6529	2691	554	-4323	2888	-18314
2686	5466	1387	774	-4323	2888	-18314
2691	4075	-30	-31	-4323	2888	-18314
2696	4388	-248	-276	-4323	2888	-18314
2701	4351	-148	-148	-2469	7143	-17273
2706	4103	-78	-151	-2469	7143	-17273
2711	4073	-86	-107	-2469	7143	-17273
2716	4131	-65	-174	-2469	7143	-17273
2721	4142	-47	-155	-2469	7143	-17273
2726	4139	-48	-97	-2469	7143	-17273
2731	4140	-33	-99	171	8484	-16740
2736	4152	-16	-141	171	8484	-16740
2741	4167	-20	-137	171	8484	-16740
2746	4174	-22	-146	171	8484	-16740
2751	4188	-23	-136	171	8484	-16740
2756	4210	-24	-145	171	8484	-16740
2761	4214	-269	-576	2625	6796	-17176
2766	4222	-52	-76	2625	6796	-17176
2771	4200	-47	-141	2625	6796	-17176
2776	4225	-215	-314	2625	6796	-17176
2781	4212	-61	-114	2625	6796	-17176
2786	4189	-196	-116	2625	6796	-17176
2791	4178	-98	-172	2625	6796	-17176
2796	4218	-117	-80	3935	3228	-18246
2801	4155	-148	-128	3935	3228	-18246
2806	4166	-123	-179	3935	3228	-18246
2811	4133	-128	-124	3935	3228	-18246
2816	4133	-86	-190	3935	3228	-18246
2821	4131	-117	-142	3935	3228	-18246
2826	4119	-120	-114	4137	-1361	-18276
2831	4104	-127	-101	4137	-1361	-18276
2836	4102	-118	-97	4137	-1361	-18276
2841	4100	-104	-113	4137	-1361	-18276
2846	4090	-117	-96	4137	-1361	-18276
2851	4080	-120	-75	4137	-1361	-18276
2856	4076	-110	-71	-6702	-2481	-3089
2861	4045	-117	-65	-6702	-2481	-3089
2866	4046	-104	-59	-6702	-2481	-3089
2871	4042	-103	-68	-6702	-2481	-3089
2876	4036	-105	-50	-6702	-2481	-3089
2881	-27730	-4192	-2914	-6702	-2481	-3089
2886	-3913	6119	-1369	-18330	-3498	1581
2891	-1771	308	161	-18330	-3498	1581
2896	-726	97	20	-18330	-3498	1581
2901	-2562	823	-1816	-18330	-3498	1581
2906	-3078	-812	-2372	-18330	-3498	1581
2911	-62	-267	-3437	-18330	-3498	1581
2916	-948	303	-3849	6554	-7026	1449
2921	-3213	839	-2517	6554	-7026	1449
2926	-2730	1082	-3666	6554	-7026	1449
2931	-1564	-30	-2980	6554	-7026	1449
2936	-1669	-720	-1021	6554	-7026	1449
2941	-964	-1328	1288	6554	-7026	1449
2946	-746	-1802	3131	6554	-7026	1449
2951	-517	-1167	4503	932	4155	1660
2956	-1627	-995	278	932	4155	1660
2961	-2004	1406	8255	932	4155	1660
2966	-1289	1378	7736	932	4155	1660
2971	-897	1151	4715	932	4155	1660
2976	-1136	292	2033	932	4155	1660
2981	-1065	-109	-360	-3820	344	2155
2986	-1152	-463	-1580	-3820	344	2155
2991	-1285	-184	-1852	-3820	344	2155
2996	-1135	588	-1416	-3820	344	2155
3001	-882	887	-534	-3820	344	2155
3006	-827	997	209	-3820	344	2155
3011	-1420	860	947	7392	1759	2672
3016	336	976	1201	7392	1759	2672
3021	-632	1126	1340	7392	1759	2672
3026	-541	945	1432	7392	1759	2672
3031	-960	677	1223	7392	1759	2672
3036	477	545	698	7392	1759	2672
3041	657	457	324	-10307	3301	2155
3046	-932	553	-92	-10307	3301	2155
3051	-1300	1029	-151	-10307	3301	2155
3056	-540	1584	444	-10307	3301	2155
3061	155	1364	678	-10307	3301	2155
3066	95	986	544	-10307	3301	2155
3071	-90	815	625	-305	-4799	3286
3076	748	265	417	-305	-4799	3286
3081	-776	466	-514	-305	-4799	3286
3086	-3783	2085	-1922	-305	-4799	3286
3091	-2628	730	-1698	-305	-4799	3286
3096	-1986	1717	-1597	-305	-4799	3286
3101	376	2036	-1212	-305	-4799	3286
3106	831	2069	-634	1618	523	3847
3111	570	1446	94	1618	523	3847
3116	1106	770	5333	1618	523	3847
3121	1140	533	3569	1618	523	3847
3126	567	1431	1302	1618	523	3847
3131	1131	2395	765	1618	523	3847
3136	1736	3095	676	1555	1255	2562
3141	974	2902	899	1555	1255	2562
3146	1372	2377	81	1555	1255	2562
3151	1197	1856	144	1555	1255	2562
3156	826	1431	99	1555	1255	2562
3161	315	1006	-104	1555	1255	2562
3166	429	694	-329	1268	-114	4158
3171	959	257	-481	1268	-114	4158
3176	714	208	-305	1268	-114	4158
3181	1061	760	-279	1268	-114	4158
3186	1008	1725	-41	1268	-114	4158
3191	1413	1648	446	1268	-114	4158
3196	1401	1414	393	2649	440	2067
3201	1951	1906	247	2649	440	2067
3206	2354	3072	216	2649	440	2067
3211	3172	4049	538	2649	440	2067
3216	2616	5037	633	2649	440	2067
3221	1500	5617	557	2649	440	2067
3226	611	5708	341	-2219	-1372	-1084
3231	726	5190	199	-2219	-1372	-1084
3236	1565	4679	-193	-2219	-1372	-1084
3241	1764	4577	-471	-2219	-1372	-1084
3246	1529	4876	-752	-2219	-1372	-1084
3251	1195	5600	-924	-2219	-1372	-1084
3256	1111	5789	-887	-2219	-1372	-1084
3261	1013	5748	-557	1871	438	-3821
3266	1068	5502	136	1871	438	-3821
3271	1081	5590	1113	1871	438	-3821
3276	1234	5976	2208	1871	438	-3821
3281	1617	6524	2945	1871	438	-3821
3286	1860	6952	2454	1871	438	-3821
3291	2058	7224	1169	-465	-1298	-11258
3296	2355	7698	52	-465	-1298	-11258
3301	2634	7728	-649	-465	-1298	-11258
3306	3134	7309	-923	-465	-1298	-11258
3311	3675	6330	-801	-465	-1298	-11258
3316	4216	5131	-615	-465	-1298	-11258
3321	4229	4049	-272	-2530	1989	-12175
3326	4503	2638	263	-2530	1989	-12175
3331	3718	1511	569	-2530	1989	-12175
3336	3092	916	557	-2530	1989	-12175
3341	2719	393	315	-2530	1989	-12175
3346	2147	-148	58	-2530	1989	-12175
3351	1992	-120	-196	-2002	3771	-13306
3356	1946	-71	-171	-2002	3771	-13306
3361	2464	-197	-143	-2002	3771	-13306
3366	2400	-133	-194	-2002	3771	-13306
3371	2324	-38	-184	-2002	3771	-13306
3376	2179	-24	-188	-2002	3771	-13306
3381	2182	-37	-160	-651	4866	-12783
3386	2153	-78	27	-651	4866	-12783
3391	2231	28	-170	-651	4866	-12783
3396	2244	-17	-153	-651	4866	-12783
3401	2249	-6	-146	-651	4866	-12783
3406	2272	-18	-144	-651	4866	-12783
3411	2280	-7	-126	-651	4866	-12783
3416	2290	-9	-146	617	4954	-12798
3421	2279	-19	-150	617	4954	-12798
3426	2271	-10	-162	617	4954	-12798
3431	2287	-25	-145	617	4954	-12798
3436	2290	-12	-135	617	4954	-12798
3441	2295	-15	-148	617	4954	-12798
3446	2291	-31	-175	1421	3983	-12999
3451	2289	-24	-160	1421	3983	-12999
3456	2265	-65	-122	1421	3983	-12999
3461	2267	-57	-137	1421	3983	-12999
3466	2289	-162	-210	1421	3983	-12999
3471	2284	-42	-181	1421	3983	-12999
3476	2261	-28	-134	2069	2687	-13347
3481	2252	-68	-151	2069	2687	-13347
3486	2248	-51	-139	2069	2687	-13347
3491	2252	-63	-130	2069	2687	-13347
3496	2245	-62	-124	2069	2687	-13347
3501	2247	-59	-128	2069	2687	-13347
3506	2255	-63	-124	2441	832	-13567
3511	2242	-50	-127	2441	832	-13567
3516	2226	-53	-119	2441	832	-13567
3521	2243	-43	-122	2441	832	-13567
3526	2232	-35	-119	2441	832	-13567
3531	2231	-41	-107	2441	832	-13567
3536	2217	-32	-121	-5153	2823	3169
3541	2222	-27	-112	-5153	2823	3169
3546	2215	-25	-110	-5153	2823	3169
3551	680	12015	839	-5153	2823	3169
3556	-5556	3086	3491	-5153	2823	3169
3561	1973	750	-795	-5153	2823	3169
3566	-480	513	-463	-5153	2823	3169
3571	122	544	1466	-1327	-328	1543
3576	1938	2103	953	-1327	-328	1543
3581	3985	3848	209	-1327	-328	1543
3586	3017	5727	-1004	-1327	-328	1543
3591	2390	5405	-2341	-1327	-328	1543
3596	2177	8116	-2998	-1327	-328	1543
3601	1853	7237	-1246	-875	-434	-1545
3606	2136	5570	218	-875	-434	-1545
3611	1858	4099	708	-875	-434	-1545
3616	1563	3291	234	-875	-434	-1545
3621	1354	2613	1115	-875	-434	-1545
3626	1078	1931	456	-875	-434	-1545
3631	705	1864	-88	8545	-894	783
3636	517	1467	293	8545	-894	783
3641	375	1297	296	8545	-894	783
3646	33	792	244	8545	-894	783
3651	-191	578	423	8545	-894	783
3656	-67	448	406	8545	-894	783
3661	103	462	409	13968	1868	891
3666	611	266	380	13968	1868	891
3671	666	225	353	13968	1868	891
3676	574	140	158	13968	1868	891
3681	407	42	-106	13968	1868	891
3686	369	-47	-240	13968	1868	891
3691	295	15	-44	-1911	3189	958
3696	83	41	-126	-1911	3189	958
3701	639	2574	-967	-1911	3189	958
3706	1235	1120	-2010	-1911	3189	958
3711	1876	-344	-1406	-1911	3189	958
3716	1193	1110	-1447	-1911	3189	958
3721	736	1692	-1860	-1911	3189	958
3726	929	1357	-2052	-2277	2571	34
3731	1545	1179	-1782	-2277	2571	34
3736	2262	754	-1722	-2277	2571	34
3741	3007	740	-1894	-2277	2571	34
3746	2447	649	-2470	-2277	2571	34
3751	1876	156	-2648	-2277	2571	34
3756	1566	-156	-2620	-1590	1063	1590
3761	1528	-309	-2660	-1590	1063	1590
3766	1680	67	-2601	-1590	1063	1590
3771	1757	660	-2481	-1590	1063	1590
3776	1863	1507	-2476	-1590	1063	1590
3781	1852	2436	-2858	-1590	1063	1590
3786	1319	3254	-3006	-1082	-1214	-1784
3791	1786	3581	-3310	-1082	-1214	-1784
3796	1787	3319	-3663	-1082	-1214	-1784
3801	1585	2945	-4008	-1082	-1214	-1784
3806	1765	2898	-4386	-1082	-1214	-1784
3811	2014	2840	-4572	-1082	-1214	-1784
3816	2163	2843	-4623	1136	-3860	-3108
3821	2220	2798	-4658	1136	-3860	-3108
3826	2507	2971	-4919	1136	-3860	-3108
3831	2530	3191	-5064	1136	-3860	-3108
3836	2645	3479	-5233	1136	-3860	-3108
3841	2727	3854	-5445	1136	-3860	-3108
3846	2917	4321	-5817	-1165	-10749	-6057
3851	3334	4734	-6294	-1165	-10749	-6057
3856	3793	4528	-6663	-1165	-10749	-6057
3861	4252	3849	-7060	-1165	-10749	-6057
3866	4519	2933	-6727	-1165	-10749	-6057
3871	5049	1889	-5555	-1165	-10749	-6057
3876	5317	1199	-3859	-1165	-10749	-6057
3881	4786	828	-2214	-4659	-11474	-9054
3886	3835	503	-1365	-4659	-11474	-9054
3891	5007	273	-779	-4659	-11474	-9054
3896	3915	143	-169	-4659	-11474	-9054
3901	2517	-44	-86	-4659	-11474	-9054
3906	2532	-68	-61	-4659	-11474	-9054
3911	2577	-66	-61	-6350	-7780	-12301
3916	2582	-38	-213	-6350	-7780	-12301
3921	2579	-86	-64	-6350	-7780	-12301
3926	2542	-78	-122	-6350	-7780	-12301
3931	2480	89	-296	-6350	-7780	-12301
3936	2530	-92	-141	-6350	-7780	-12301
3941	2529	-84	-136	-7234	-2043	-14168
3946	2519	-98	-79	-7234	-2043	-14168
3951	2512	-62	-130	-7234	-2043	-14168
3956	2503	-97	-140	-7234	-2043	-14168
3961	2486	-91	-148	-7234	-2043	-14168
3966	2479	-80	-140	-7234	-2043	-14168
3971	2468	-69	-158	-6692	4316	-13816
3976	2468	-68	-163	-6692	4316	-13816
3981	2460	-49	-167	-6692	4316	-13816
3986	2467	-56	-171	-6692	4316	-13816
3991	2451	-44	-168	-6692	4316	-13816
3996	2450	-22	-186	-6692	4316	-13816
4001	2457	-23	-177	-5095	9156	-11176
4006	2458	-19	-195	-5095	9156	-11176
4011	2462	-13	-184	-5095	9156	-11176
4016	2462	-3	-174	-5095	9156	-11176
4021	2473	6	-207	-5095	9156	-11176
4026	2466	-4	-176	-5095	9156	-11176
4031	2469	6	-180	-5095	9156	-11176
4036	2467	27	-152	-3587	11747	-8496
4041	2461	-8	-206	-3587	11747	-8496
4046	2466	1	-163	-3587	11747	-8496
4051	2468	3	-162	-3587	11747	-8496
4056	2451	7	-147	-3587	11747	-8496
4061	2449	4	-147	-3587	11747	-8496
4066	2457	23	-136	-2156	12947	-6139
4071	2453	18	-130	-2156	12947	-6139
4076	2451	16	-135	-2156	12947	-6139
4081	2447	11	-119	-2156	12947	-6139
4086	2447	3	-126	-2156	12947	-6139
4091	2441	9	-101	-2156	12947	-6139
4096	2429	-4	-105	-2317	-6036	-2154
4101	2420	-5	-108	-2317	-6036	-2154
4106	-10816	-1871	-10880	-2317	-6036	-2154
4111	363	-133	712	-2317	-6036	-2154
4116	738	-883	2824	-2317	-6036	-2154
4121	-24	-216	973	-2317	-6036	-2154
4126	229	-910	2495	-1849	-2963	-1653
4131	123	-944	3573	-1849	-2963	-1653
4136	1496	-328	3204	-1849	-2963	-1653
4141	1741	689	3230	-1849	-2963	-1653
4146	2044	1101	2738	-1849	-2963	-1653
4151	1642	458	4872	-1849	-2963	-1653
4156	1297	-699	5902	-6867	1106	734
4161	1457	-1047	5133	-6867	1106	734
4166	962	-1381	4052	-6867	1106	734
4171	792	-1768	3258	-6867	1106	734
4176	600	-2014	2710	-6867	1106	734
4181	470	-2099	2019	-6867	1106	734
4186	367	-1987	1358	-6867	1106	734
4191	318	-1782	905	-999	-2151	-1240
4196	717	-1061	397	-999	-2151	-1240
4201	944	-507	-231	-999	-2151	-1240
4206	1157	83	-416	-999	-2151	-1240
4211	922	447	-360	-999	-2151	-1240
4216	801	405	-172	-999	-2151	-1240
4221	890	337	28	-2381	-2562	-3073
4226	954	215	387	-2381	-2562	-3073
4231	891	-223	717	-2381	-2562	-3073
4236	883	-746	1242	-2381	-2562	-3073
4241	1331	-876	1140	-2381	-2562	-3073
4246	1251	-983	1065	-2381	-2562	-3073
4251	1342	-1055	956	-254	-1512	-1976
4256	1223	-1124	849	-254	-1512	-1976
4261	1240	-1278	767	-254	-1512	-1976
4266	1491	-1676	743	-254	-1512	-1976
4271	1934	-2417	818	-254	-1512	-1976
4276	1946	-3305	834	-254	-1512	-1976
4281	1252	-3318	986	-798	-1245	-1147
4286	1187	-2888	1202	-798	-1245	-1147
4291	1472	-2496	1333	-798	-1245	-1147
4296	1483	-2379	1361	-798	-1245	-1147
4301	1550	-2466	1499	-798	-1245	-1147
4306	1708	-2834	1125	-798	-1245	-1147
4311	1801	-2886	1926	804	533	1887
4316	1755	-3535	2002	804	533	1887
4321	1788	-4380	2247	804	533	1887
4326	1797	-5192	2476	804	533	1887
4331	1612	-5644	2704	804	533	1887
4336	1672	-5861	2747	804	533	1887
4341	1688	-5683	2824	804	533	1887
4346	2380	-5875	2703	2159	2708	5710
4351	2581	-5849	2694	2159	2708	5710
4356	2753	-5799	2995	2159	2708	5710
4361	2803	-5885	3292	2159	2708	5710
4366	2753	-6094	3689	2159	2708	5710
4371	2937	-6329	3800	2159	2708	5710
4376	2695	-6034	3675	-2449	8183	11012
4381	3673	-6255	3377	-2449	8183	11012
4386	4095	-6286	3354	-2449	8183	11012
4391	4456	-5734	3370	-2449	8183	11012
4396	5024	-4691	3216	-2449	8183	11012
4401	5814	-3742	2901	-2449	8183	11012
4406	6398	-2857	2333	-9028	3263	16392
4411	6211	-1801	1664	-9028	3263	16392
4416	4319	-535	318	-9028	3263	16392
4421	3356	41	-104	-9028	3263	16392
4426	3352	-60	-73	-9028	3263	16392
4431	3407	-39	0	-9028	3263	16392
4436	3361	-311	39	-9155	-6434	15471
4441	3354	-261	-88	-9155	-6434	15471
4446	3457	-97	-40	-9155	-6434	15471
4451	3497	-94	-43	-9155	-6434	15471
4456	3513	-95	-49	-9155	-6434	15471
4461	3522	-75	-45	-9155	-6434	15471
4466	3502	-89	-71	-6545	-12962	10711
4471	3469	-81	-92	-6545	-12962	10711
4476	3452	-53	-89	-6545	-12962	10711
4481	3475	-60	-90	-6545	-12962	10711
4486	3479	-55	-83	-6545	-12962	10711
4491	3500	-75	40	-6545	-12962	10711
4496	3464	-52	-135	-6545	-12962	10711
4501	3436	-251	-23	-4546	-15653	6247
4506	3464	-77	-120	-4546	-15653	6247
4511	3495	-34	-93	-4546	-15653	6247
4516	3472	-45	-110	-4546	-15653	6247
4521	3464	-53	-98	-4546	-15653	6247
4526	3446	-52	-93	-4546	-15653	6247
4531	3449	-56	-101	-3269	-16566	2684
4536	3444	-50	-112	-3269	-16566	2684
4541	3450	-54	-113	-3269	-16566	2684
4546	3443	-42	-102	-3269	-16566	2684
4551	3424	-40	-105	-3269	-16566	2684
4556	3425	-39	-98	-3269	-16566	2684
4561	3421	-35	-96	-2849	-16756	-114
4566	3415	-46	-104	-2849	-16756	-114
4571	3406	-40	-103	-2849	-16756	-114
4576	3407	-29	-104	-2849	-16756	-114
4581	3400	-42	-89	-2849	-16756	-114
4586	3387	-29	-92	-2849	-16756	-114
4591	3384	-45	-99	-2902	5399	-2497
4596	3373	-40	-100	-2902	5399	-2497
4601	3362	-34	-71	-2902	5399	-2497
4606	3345	-39	-78	-2902	5399	-2497
4611	3344	-42	-81	-2902	5399	-2497
4616	-15548	708	3839	-2902	5399	-2497
4621	-2461	-422	94	4045	4589	2792
4626	-823	2069	1443	4045	4589	2792
4631	-1949	-498	-518	4045	4589	2792
4636	-2421	-2027	-1534	4045	4589	2792
4641	-1054	-2373	-2354	4045	4589	2792
4646	650	-3047	-2578	4045	4589	2792
4651	317	-4400	-4497	4045	4589	2792
4656	-1178	-3384	-5655	-4214	1540	-291
4661	-1297	-543	-3864	-4214	1540	-291
4666	-1284	2299	-1986	-4214	1540	-291
4671	-1046	3974	-447	-4214	1540	-291
4676	-1213	4297	1011	-4214	1540	-291
4681	-2007	3392	1590	-4214	1540	-291
4686	-1946	2391	1717	-5716	3824	-462
4691	-1359	1532	424	-5716	3824	-462
4696	-1154	424	202	-5716	3824	-462
4701	-1064	139	-444	-5716	3824	-462
4706	-641	252	-744	-5716	3824	-462
4711	-199	-448	-2031	-5716	3824	-462
4716	-479	-580	-3013	-3663	-487	1647
4721	-607	-132	-3372	-3663	-487	1647
4726	105	623	-3671	-3663	-487	1647
4731	584	1002	-3325	-3663	-487	1647
4736	757	598	-2597	-3663	-487	1647
4741	443	-116	-1761	-3663	-487	1647
4746	437	-367	-1415	-4984	-465	3963
4751	224	-263	-991	-4984	-465	3963
4756	268	-187	-710	-4984	-465	3963
4761	-187	32	-91	-4984	-465	3963
4766	50	301	455	-4984	-465	3963
4771	63	390	594	-4984	-465	3963
4776	870	796	1051	-3269	1725	5338
4781	1706	1016	1280	-3269	1725	5338
4786	2291	1060	1149	-3269	1725	5338
4791	2754	1377	363	-3269	1725	5338
4796	2698	1460	-344	-3269	1725	5338
4801	2177	1898	-962	-3269	1725	5338
4806	1527	2441	-1227	-3269	1725	5338
4811	1236	3056	-1166	108	487	3800
4816	1526	3380	-841	108	487	3800
4821	2143	3535	-431	108	487	3800
4826	2552	3400	-135	108	487	3800
4831	2630	3137	35	108	487	3800
4836	2561	2910	-102	108	487	3800
4841	2412	2882	-458	-2201	-844	2352
4846	2216	3113	-891	-2201	-844	2352
4851	1768	3694	-958	-2201	-844	2352
4856	973	4010	-847	-2201	-844	2352
4861	873	4414	-397	-2201	-844	2352
4866	1497	4270	31	-2201	-844	2352
4871	1989	4083	608	122	142	-1072
4876	2450	4035	691	122	142	-1072
4881	2855	4140	650	122	142	-1072
4886	2834	4682	478	122	142	-1072
4891	1830	5085	-3	122	142	-1072
4896	1910	5196	-306	122	142	-1072
4901	1974	5156	-373	400	363	-3632
4906	2107	4994	-123	400	363	-3632
4911	2208	4925	300	400	363	-3632
4916	2388	4857	612	400	363	-3632
4921	2542	5080	517	400	363	-3632
4926	2951	5804	253	400	363	-3632
4931	2975	6245	-18	2398	-874	-7984
4936	3132	6429	-208	2398	-874	-7984
4941	3164	6281	-327	2398	-874	-7984
4946	3456	5940	-274	2398	-874	-7984
4951	3654	5778	-197	2398	-874	-7984
4956	3933	5623	-87	2398	-874	-7984
4961	4199	5523	-283	2398	-874	-7984
4966	4297	5115	-472	-10100	-506	-13536
4971	4458	4533	-750	-10100	-506	-13536
4976	4691	3953	-943	-10100	-506	-13536
4981	4973	3124	-835	-10100	-506	-13536
4986	4926	2259	-523	-10100	-506	-13536
4991	2995	1006	-179	-10100	-506	-13536
4996	2297	12	-140	-10172	8334	-10942
5001	2177	-43	-144	-10172	8334	-10942
5006	2183	-34	-165	-10172	8334	-10942
5011	2197	-10	-45	-10172	8334	-10942
5016	2160	5	-174	-10172	8334	-10942
5021	2157	25	-167	-10172	8334	-10942
5026	2167	45	-185	-8399	13085	-4895
5031	2170	45	-130	-8399	13085	-4895
5036	2203	74	-122	-8399	13085	-4895
5041	2237	80	-124	-8399	13085	-4895
5046	2259	72	-113	-8399	13085	-4895
5051	2288	30	8	-8399	13085	-4895
5056	2253	60	-61	-8009	13740	1845
5061	2275	47	18	-8009	13740	1845
5066	2142	240	-488	-8009	13740	1845
5071	2206	50	-69	-8009	13740	1845
5076	2218	51	-104	-8009	13740	1845
5084	2185	71	-123	-8009	13740	1845
5086	2195	19	-77	-9243	10957	8360
5091	2195	53	-110	-9243	10957	8360
5096	2188	51	-94	-9243	10957	8360
5101	2184	52	-95	-9243	10957	8360
5106	2191	41	-84	-9243	10957	8360
5111	2189	28	-76	-9243	10957	8360
5116	2191	30	-65	-9243	10957	8360
5121	2187	8	-67	-10581	4316	12884
5126	2186	1	-72	-10581	4316	12884
5131	2199	-14	-62	-10581	4316	12884
5136	2176	-15	-40	-10581	4316	12884
5141	2191	-18	-55	-10581	4316	12884
5146	2213	-52	-69	-10581	4316	12884
5151	2229	-63	-53	-10494	-4484	12579
5156	2231	-55	-68	-10494	-4484	12579
5161	2235	-65	-71	-10494	-4484	12579
5166	2250	-87	-74	-10494	-4484	12579
5171	2258	-86	-77	-10494	-4484	12579
5176	2272	-123	-101	-10494	-4484	12579
5181	2269	-99	-86	-17707	-6604	4977
5186	2259	-181	-57	-17707	-6604	4977
5191	2290	-93	-97	-17707	-6604	4977
5196	2314	-81	-118	-17707	-6604	4977
5201	2311	-71	-114	-17707	-6604	4977
5206	2028	-6438	-2057	-17707	-6604	4977
5211	-1182	-3997	-3207	-2342	1453	-250
5216	-858	-1008	-821	-2342	1453	-250
5221	455	-113	-922	-2342	1453	-250
5226	239	281	-1341	-2342	1453	-250
5231	-14	649	-1477	-2342	1453	-250
5236	-1216	2128	-1345	-2342	1453	-250
5241	-1983	3215	358	-5297	1831	184
5246	-633	2008	-35	-5297	1831	184
5251	-289	1578	-1180	-5297	1831	184
5256	-463	609	-3046	-5297	1831	184
5261	-106	-137	-2836	-5297	1831	184
5266	-102	-588	-2244	-5297	1831	184
5271	-632	-484	-470	-5297	1831	184
5276	174	-18	-1112	-1223	1770	668
5281	132	1196	-1565	-1223	1770	668
5286	118	1753	-2000	-1223	1770	668
5291	201	1880	-2598	-1223	1770	668
5296	273	1350	-2695	-1223	1770	668
5301	441	1139	-2695	-1223	1770	668
5306	419	967	-2234	-6126	862	1237
5311	108	418	-1819	-6126	862	1237
5316	239	524	-1352	-6126	862	1237
5321	420	737	-1020	-6126	862	1237
5326	542	854	-862	-6126	862	1237
5331	88	1116	-632	-6126	862	1237
5336	148	1081	-368	-1813	2379	3849
5341	299	740	-197	-1813	2379	3849
5346	705	354	-192	-1813	2379	3849
5351	1279	93	-382	-1813	2379	3849
5356	1220	140	-581	-1813	2379	3849
5361	984	561	-1135	-1813	2379	3849
5366	869	1019	-806	-7404	219	4994
5371	839	1490	-985	-7404	219	4994
5376	783	1795	-984	-7404	219	4994
5381	23	2206	-843	-7404	219	4994
5386	374	2062	-752	-7404	219	4994
5391	1128	1686	-659	-7404	219	4994
5396	1717	1362	-303	-1399	-71	2170
5401	2941	1470	-154	-1399	-71	2170
5406	3983	2318	124	-1399	-71	2170
5411	3522	3195	472	-1399	-71	2170
5416	1455	2892	-216	-1399	-71	2170
5421	1714	2881	-296	-1399	-71	2170
5426	2248	3010	-320	-1399	-71	2170
5431	2228	3435	-269	-766	340	220
5436	2260	3893	16	-766	340	220
5441	2246	4189	219	-766	340	220
5446	2298	4176	202	-766	340	220
5451	2245	4206	220	-766	340	220
5456	2183	4275	156	-766	340	220
5461	2224	4403	101	1367	223	-1905
5466	2177	4575	-2	1367	223	-1905
5471	2120	4723	-64	1367	223	-1905
5476	2157	4870	-47	1367	223	-1905
5481	2188	5008	23	1367	223	-1905
5486	2248	5098	40	1367	223	-1905
5491	2660	5435	154	1844	189	-6622
5496	2724	5917	100	1844	189	-6622
5501	3059	6459	79	1844	189	-6622
5506	3230	6928	-65	1844	189	-6622
5511	3442	6965	-161	1844	189	-6622
5516	3744	6506	-264	1844	189	-6622
5521	3820	6011	-531	-733	-1933	-11238
5526	3965	5606	-652	-733	-1933	-11238
5531	3954	5245	-791	-733	-1933	-11238
5536	4400	5132	-800	-733	-1933	-11238
5541	4613	4914	-864	-733	-1933	-11238
5546	4768	4362	-869	-733	-1933	-11238
5551	4796	3432	-690	-5135	1185	-15884
5556	5155	2717	-433	-5135	1185	-15884
5561	4969	2272	-213	-5135	1185	-15884
5566	5082	1638	54	-5135	1185	-15884
5571	3979	277	18	-5135	1185	-15884
5576	3326	-74	-199	-5135	1185	-15884
5581	3053	-60	-197	-5135	1185	-15884
5586	3044	41	-250	-3506	5946	-15058
5591	3049	0	217	-3506	5946	-15058
5596	3039	-32	-195	-3506	5946	-15058
5601	3092	-15	-183	-3506	5946	-15058
5606	3118	2	-151	-3506	5946	-15058
5611	3126	9	-139	-3506	5946	-15058
5616	3121	1	-141	-1415	8266	-13916
5621	3111	-1	-136	-1415	8266	-13916
5626	3103	4	-148	-1415	8266	-13916
5631	3099	-1	-134	-1415	8266	-13916
5636	3120	1	-143	-1415	8266	-13916
5641	3140	5	-146	-1415	8266	-13916
5646	3153	3	-156	965	8509	-13671
5651	3150	1	-131	965	8509	-13671
5656	3160	0	-145	965	8509	-13671
5661	3166	-17	-85	965	8509	-13671
5666	3146	-23	-120	965	8509	-13671
5671	3163	-71	-104	965	8509	-13671
5676	3177	5	-199	2364	7039	-14402
5681	3168	-59	-162	2364	7039	-14402
5686	3137	-163	-134	2364	7039	-14402
5691	3119	-111	-167	2364	7039	-14402
5696	3139	-65	-166	2364	7039	-14402
5701	3117	-72	-159	2364	7039	-14402
5706	3096	-86	-154	3685	4181	-15399
5711	3102	-62	-158	3685	4181	-15399
5716	3103	-85	-137	3685	4181	-15399
5721	3094	-89	-129	3685	4181	-15399
5726	3081	-80	-123	3685	4181	-15399
5731	3088	-84	-127	3685	4181	-15399
5736	3071	-73	-137	3685	4181	-15399
5741	3059	-74	-142	-3439	-2188	-1353
5746	3065	-87	-118	-3439	-2188	-1353
5751	3057	-86	-102	-3439	-2188	-1353
5756	3052	-82	-102	-3439	-2188	-1353
5761	2705	3704	-655	-3439	-2188	-1353
5766	-9514	2230	-4117	-3439	-2188	-1353
5771	-396	1251	-2369	1202	-2354	3854
5776	99	-44	-16	1202	-2354	3854
5781	-1327	-3178	-1435	1202	-2354	3854
5786	-4856	2266	-943	1202	-2354	3854
5791	-4242	-34	-1334	1202	-2354	3854
5796	-319	-384	-2225	1202	-2354	3854
5801	-563	220	-706	-649	454	3216
5806	-1649	1163	607	-649	454	3216
5811	-985	1471	1639	-649	454	3216
5816	-1380	606	1787	-649	454	3216
5821	-1245	1445	2306	-649	454	3216
5826	-1424	1245	1848	-649	454	3216
5831	-1177	1514	2285	31	399	2533
5836	-1161	1823	1292	31	399	2533
5841	-1015	1696	334	31	399	2533
5846	-719	1059	-577	31	399	2533
5851	-521	671	-541	31	399	2533
5856	-782	457	-270	31	399	2533
5861	-709	111	94	2931	-974	3614
5866	-342	-24	206	2931	-974	3614
5871	-699	202	-347	2931	-974	3614
5876	-173	482	-564	2931	-974	3614
5881	288	763	-450	2931	-974	3614
5886	33	470	16	2931	-974	3614
5891	726	730	-25	2931	-974	3614
5896	790	854	80	7486	-668	2959
5901	696	956	-51	7486	-668	2959
5906	838	1503	27	7486	-668	2959
5911	1148	2124	-439	7486	-668	2959
5916	2021	3016	-353	7486	-668	2959
5921	2235	2797	-674	7486	-668	2959
5926	1889	2407	-1248	-752	1539	3028
5931	1725	2398	-1094	-752	1539	3028
5936	1752	2455	-979	-752	1539	3028
5941	1950	2332	-1091	-752	1539	3028
5946	2106	1877	-906	-752	1539	3028
5951	2149	1459	-596	-752	1539	3028
5956	1945	1369	-595	-596	1499	2144
5961	2055	1782	-878	-596	1499	2144
5966	2170	2305	-1486	-596	1499	2144
5971	2116	2934	-2008	-596	1499	2144
5976	1904	3307	-2722	-596	1499	2144
5981	1600	3574	-3321	-596	1499	2144
5986	1370	3266	-3393	-1343	166	1758
5991	1130	2765	-2944	-1343	166	1758
5996	1168	2297	-2071	-1343	166	1758
6001	1122	1907	-1263	-1343	166	1758
6006	1176	1564	-688	-1343	166	1758
6011	1533	1496	-409	-1343	166	1758
6016	1724	1817	-464	-381	-428	-668
6021	1761	2530	-821	-381	-428	-668
6026	1780	3088	-1234	-381	-428	-668
6031	1972	3583	-1676	-381	-428	-668
6036	2035	4103	-2139	-381	-428	-668
6041	2013	4709	-2493	-381	-428	-668
6046	1904	5015	-2491	-381	-428	-668
6051	2033	5377	-2347	567	-856	-4116
6056	2177	5621	-1980	567	-856	-4116
6061	2327	5607	-1724	567	-856	-4116
6066	2466	5293	-1591	567	-856	-4116
6071	2711	5015	-1490	567	-856	-4116
6076	3027	5181	-1585	567	-856	-4116
6081	3226	5624	-1745	1397	-4938	-9407
6086	3273	6082	-2203	1397	-4938	-9407
6091	3479	7166	-3180	1397	-4938	-9407
6096	3821	7671	-3936	1397	-4938	-9407
6101	4324	6996	-4492	1397	-4938	-9407
6106	4732	5790	-4335	1397	-4938	-9407
6111	4945	4052	-3565	-6261	-6012	-11412
6116	4813	2665	-2250	-6261	-6012	-11412
6121	3880	1046	-1483	-6261	-6012	-11412
6126	3799	978	-1374	-6261	-6012	-11412
6131	4209	1066	-1084	-6261	-6012	-11412
6136	2232	615	135	-6261	-6012	-11412
6141	1858	44	-266	-6883	-630	-12717
6146	1893	-72	-175	-6883	-630	-12717
6151	1919	-75	-153	-6883	-630	-12717
6156	1963	-35	-132	-6883	-630	-12717
6161	1976	-40	-150	-6883	-630	-12717
6166	1960	-37	-147	-6883	-630	-12717
6171	1947	-34	-123	-6090	4722	-11957
6176	1959	-37	-98	-6090	4722	-11957
6181	1940	-31	-157	-6090	4722	-11957
6186	1952	-2	-136	-6090	4722	-11957
6191	1944	-10	-134	-6090	4722	-11957
6196	1932	3	-154	-6090	4722	-11957
6201	1923	9	-156	-6090	4722	-11957
6206	1920	6	-171	-4617	8142	-9662
6211	1941	17	-151	-4617	8142	-9662
6216	1958	17	-151	-4617	8142	-9662
6221	1972	49	-318	-4617	8142	-9662
6226	2005	-59	-167	-4617	8142	-9662
6231	1993	-80	-207	-4617	8142	-9662
6236	1947	-104	-271	-3606	10592	-7355
6241	1934	14	-126	-3606	10592	-7355
6246	1934	-34	-183	-3606	10592	-7355
6251	1901	9	-176	-3606	10592	-7355
6256	1927	-12	-122	-3606	10592	-7355
6261	1955	-19	-167	-3606	10592	-7355
6266	1944	19	-173	-2455	11671	-5355
6271	1921	20	-172	-2455	11671	-5355
6276	1925	27	-156	-2455	11671	-5355
6281	1938	16	-161	-2455	11671	-5355
6286	1938	8	-139	-2455	11671	-5355
6291	1940	16	-147	-2455	11671	-5355
6296	1923	14	-139	-809	9317	-4261
6301	1932	8	-146	-809	9317	-4261
6306	3657	-590	-4096	-809	9317	-4261
6311	3018	-219	-1693	-809	9317	-4261
6316	2926	274	6	-809	9317	-4261
6321	2628	867	853	-809	9317	-4261
6326	1842	1003	1264	-30270	4045	5567
6331	1520	526	871	-30270	4045	5567
6336	1599	344	542	-30270	4045	5567
6341	1061	7968	7812	-30270	4045	5567
6346	1325	1306	2102	-30270	4045	5567
6351	715	244	3	-30270	4045	5567
6356	1172	225	329	-30270	4045	5567
6361	3417	-2388	672	-4598	187	-3880
6366	-55	-2069	21	-4598	187	-3880
6371	-103	-1318	-653	-4598	187	-3880
6376	-208	-1647	-1281	-4598	187	-3880
6381	-799	-2038	-1072	-4598	187	-3880
6386	-329	-2480	-961	-4598	187	-3880
6391	536	-2892	-1314	-15353	5393	-2686
6396	1350	-2922	-1586	-15353	5393	-2686
6401	573	-2241	-316	-15353	5393	-2686
6406	340	-1280	-239	-15353	5393	-2686
6411	327	-630	-374	-15353	5393	-2686
6416	333	-228	-281	-15353	5393	-2686
6421	364	51	-80	-15192	5285	2542
6426	369	65	-26	-15192	5285	2542
6431	389	72	-145	-15192	5285	2542
6436	381	82	-162	-15192	5285	2542
6441	339	-125	-845	-15192	5285	2542
6446	372	48	-108	-15192	5285	2542
6451	366	26	-122	-15672	999	5687
6456	351	10	-108	-15672	999	5687
6461	342	-1	-139	-15672	999	5687
6466	349	-28	-51	-15672	999	5687
6471	375	-16	-89	-15672	999	5687
6476	391	-63	-87	-15672	999	5687
6481	393	-55	-89	-15619	-4159	3815
6486	398	-70	-96	-15619	-4159	3815
6491	424	-69	-73	-15619	-4159	3815
6496	431	-75	-93	-15619	-4159	3815
6501	443	-86	-107	-15619	-4159	3815
6506	447	-99	-114	-15619	-4159	3815
6511	463	-92	-112	-15619	-4159	3815
6516	460	-95	-106	13268	-28971	-93
6521	479	-108	-127	13268	-28971	-93
6526	479	-108	-120	13268	-28971	-93
6531	481	-96	-135	13268	-28971	-93
6536	-4784	26467	10108	13268	-28971	-93
6541	-2173	-1718	-8997	13268	-28971	-93
6546	-1892	-2772	430	17372	-15882	-83
6551	3627	-30	-1981	17372	-15882	-83
6556	3599	-7676	6034	17372	-15882	-83
6561	5302	2596	7085	17372	-15882	-83
6566	4931	-3219	4643	17372	-15882	-83
6571	1643	-1824	-2176	17372	-15882	-83
6576	1464	-209	3282	11970	-1946	-102
6581	887	4	1650	11970	-1946	-102
6586	613	-2	-1764	11970	-1946	-102
6591	2301	-921	-1807	11970	-1946	-102
6596	2722	-127	-1649	11970	-1946	-102
6601	3057	-399	-1129	11970	-1946	-102
6606	7751	-6139	1552	3100	-10505	-64
6611	-7386	15445	-4141	3100	-10505	-64
6616	-4358	-17	3468	3100	-10505	-64
6621	-2363	-787	3725	3100	-10505	-64
6626	-504	2166	-2539	3100	-10505	-64
6631	-919	970	-891	3100	-10505	-64
6636	-752	651	-1333	-24600	-17252	-76
6641	-1029	910	-2381	-24600	-17252	-76
6646	-1461	813	-2454	-24600	-17252	-76
6651	-761	-613	-3771	-24600	-17252	-76
6656	-2149	4652	-8768	-24600	-17252	-76
6661	-3914	4657	-2992	-24600	-17252	-76
6666	-2347	-3046	-1828	-24600	-17252	-76
6671	-1409	-1671	844	4552	16258	-80
6676	1907	-5543	-500	4552	16258	-80
6681	2145	-7007	1700	4552	16258	-80
6686	139	6624	-9	4552	16258	-80
6691	445	256	-5704	4552	16258	-80
6696	1906	1970	-2655	4552	16258	-80
6701	1228	-514	219	-3902	2675	-83
6706	1375	-3349	1798	-3902	2675	-83
6711	4099	93	-3310	-3902	2675	-83
6716	241	7307	7008	-3902	2675	-83
6721	614	3441	4251	-3902	2675	-83
6726	362	2003	2240	-3902	2675	-83
6731	519	1515	942	-10705	1897	-85
6736	138	2032	910	-10705	1897	-85
6741	-52	1737	751	-10705	1897	-85
6746	46	1592	581	-10705	1897	-85
6751	218	1299	898	-10705	1897	-85
6756	72	835	1361	-10705	1897	-85
6761	159	819	1605	3740	-3296	-5042
6766	113	-558	980	3740	-3296	-5042
6771	192	194	1682	3740	-3296	-5042
6776	241	103	2408	3740	-3296	-5042
6781	43	-673	1193	3740	-3296	-5042
6786	212	-838	409	3740	-3296	-5042
6791	155	-820	2351	2320	-262	-1145
6796	449	619	1140	2320	-262	-1145
6801	171	242	1601	2320	-262	-1145
6806	35	9	1703	2320	-262	-1145
6811	-326	-537	2522	2320	-262	-1145
6816	-107	-773	2171	2320	-262	-1145
6821	-276	-580	2044	2320	-262	-1145
6826	-270	-367	1900	-666	234	1452
6831	-259	-439	1594	-666	234	1452
6836	-173	67	1692	-666	234	1452
6841	-108	-51	1734	-666	234	1452
6846	85	-147	1928	-666	234	1452
6851	99	-346	2121	-666	234	1452
6856	107	-483	2252	558	-405	17
6861	66	-344	2150	558	-405	17
6866	176	-18	1861	558	-405	17
6871	-14	712	1440	558	-405	17
6876	-110	254	2352	558	-405	17
6881	-13	-264	2052	558	-405	17
6886	-77	-226	2063	474	371	-669
6891	15	587	1383	474	371	-669
6896	105	316	2068	474	371	-669
6901	54	-266	2134	474	371	-669
6906	45	-340	2154	474	371	-669
6911	65	-62	1945	474	371	-669
6916	-37	-7	1995	-519	214	749
6921	-99	-84	1891	-519	214	749
6926	-60	-56	1859	-519	214	749
6931	-97	-18	1841	-519	214	749
6936	-68	-31	1871	-519	214	749
6941	56	91	1831	-519	214	749
6946	40	-165	1961	-421	7	-159
6951	28	-119	2030	-421	7	-159
6956	90	32	1944	-421	7	-159
6961	-7	-162	2074	-421	7	-159
6966	42	112	1783	-421	7	-159
6971	-40	-139	2036	-421	7	-159
6976	37	52	1896	-421	7	-159
6981	-4	-14	1959	62	73	65
6986	-13	-77	1966	62	73	65
6991	17	-24	1911	62	73	65
6996	-15	-38	1925	62	73	65
7001	-14	-58	1916	62	73	65
7006	27	8	1886	62	73	65
7011	0	-33	1931	-69	-2	37
7016	-7	39	1867	-69	-2	37
7021	-3	-27	1929	-69	-2	37
7026	10	4	1928	-69	-2	37
7031	3	-9	1921	-69	-2	37
7036	-11	-4	1905	-69	-2	37
7041	-10	-11	1914	-21	-5	-13
7046	17	-16	1921	-21	-5	-13
7051	1	-24	1905	-21	-5	-13
7056	3	-26	1908	-21	-5	-13
7061	10	-10	1925	-21	-5	-13
7066	3	-21	1923	-21	-5	-13
7071	7	11	1900	-81	36	-29
7076	6	-14	1919	-81	36	-29
7081	3	-5	1913	-81	36	-29
7086	-4	-21	1920	-81	36	-29
7091	7	-15	1925	-81	36	-29
7096	18	-9	1929	-81	36	-29
7101	5	-24	1930	-27	19	104
7106	3	-8	1900	-27	19	104
7111	7	-20	1920	-27	19	104
7116	-2	-14	1920	-27	19	104
7121	4	-1	1909	-27	19	104
7126	0	-8	1913	-27	19	104
7131	3	-7	1906	-27	19	104
7136	4	-5	1907	-86	24	52
7141	1	-17	1915	-86	24	52
7146	13	-6	1919	-86	24	52
7151	-1	-21	1923	-86	24	52
7156	3	-16	1920	-86	24	52
7161	14	-22	1919	-86	24	52
7166	5	-21	1914	-329	120	-206
7171	6	-10	1921	-329	120	-206
7176	1	-16	1915	-329	120	-206
7181	7	-32	1918	-329	120	-206
7186	-257	-2898	1422	-329	120	-206
7191	480	877	2622	-329	120	-206
7196	1749	2733	1973	682	531	-2427
7201	319	646	1985	682	531	-2427
7206	-4	188	1813	682	531	-2427
7211	-324	-23	2128	682	531	-2427
7216	-909	-183	2158	682	531	-2427
7221	-40	240	2151	682	531	-2427
7226	18	72	1915	-604	-171	-1741
7231	305	21	2003	-604	-171	-1741
7236	1823	972	2498	-604	-171	-1741
7241	875	133	2137	-604	-171	-1741
7246	-270	-283	1788	-604	-171	-1741
7251	-818	-242	1560	-604	-171	-1741
7256	-592	22	1504	-1759	-335	-316
7261	-185	209	1775	-1759	-335	-316
7266	251	-183	2567	-1759	-335	-316
7271	81	-707	3123	-1759	-335	-316
7276	-341	-820	3199	-1759	-335	-316
7281	-234	-582	2941	-1759	-335	-316
7286	75	-88	2555	-1759	-335	-316
7291	285	488	2038	1050	-727	-1363
7296	245	557	1554	1050	-727	-1363
7301	239	621	1407	1050	-727	-1363
7306	384	436	1398	1050	-727	-1363
7311	609	519	1709	1050	-727	-1363
7316	1044	928	2224	1050	-727	-1363
7321	1023	522	2225	660	1309	-1505
7326	462	185	2037	660	1309	-1505
7331	305	108	2199	660	1309	-1505
7336	383	-231	2542	660	1309	-1505
7341	3	-933	2704	660	1309	-1505
7346	-372	-744	2122	660	1309	-1505
7351	-529	-483	1914	750	1348	-580
7356	-464	-518	1781	750	1348	-580
7361	-202	-283	2139	750	1348	-580
7366	17	-92	2149	750	1348	-580
7371	117	-61	1709	750	1348	-580
7376	49	-35	1570	750	1348	-580
7381	-59	42	1737	-3126	1832	1837
7386	-186	13	1765	-3126	1832	1837
7391	-227	-113	1675	-3126	1832	1837
7396	-459	-295	1732	-3126	1832	1837
7401	-293	-441	1929	-3126	1832	1837
7406	-305	-712	1897	-3126	1832	1837
7411	-424	-879	2023	1701	209	1357
7416	0	-1179	2376	1701	209	1357
7421	-20	-677	2275	1701	209	1357
7426	-271	-367	2154	1701	209	1357
7431	-518	-174	1648	1701	209	1357
7436	-590	-90	1783	1701	209	1357
7441	-731	-135	1227	1701	209	1357
7446	-839	-212	1192	7	579	165
7451	-704	-446	1625	7	579	165
7456	-796	-993	1978	7	579	165
7461	-853	-1122	2204	7	579	165
7466	-766	-834	2303	7	579	165
7471	-542	-574	2372	7	579	165
7476	-529	-416	2673	3959	390	-647
7481	-682	-200	2367	3959	390	-647
7486	-820	-25	2089	3959	390	-647
7491	-748	141	2057	3959	390	-647
7496	-769	101	1994	3959	390	-647
7501	-833	-68	1635	3959	390	-647
7506	-978	-199	1650	325	54	-808
7511	-904	-113	1813	325	54	-808
7516	-785	65	1705	325	54	-808
7521	-891	531	1233	325	54	-808
7526	-576	553	1967	325	54	-808
7531	-647	485	1780	325	54	-808
7536	-613	457	1996	-878	-411	-16
7541	-605	321	2105	-878	-411	-16
7546	-1046	-809	2652	-878	-411	-16
7551	-169	719	2091	-878	-411	-16
7556	-779	-9	1944	-878	-411	-16
7561	-769	-30	1852	-878	-411	-16
7566	-526	400	1718	-1298	3126	3289
7571	-348	424	1204	-1298	3126	3289
7576	-582	299	1685	-1298	3126	3289
7581	-594	926	890	-1298	3126	3289
7586	-613	1616	-342	-1298	3126	3289
7591	-895	-258	2222	-1298	3126	3289
7596	-1084	-146	2371	-1298	3126	3289
7601	-945	138	1447	612	-1281	315
7606	-1130	296	1691	612	-1281	315
7611	-1367	479	1756	612	-1281	315
7616	-1514	377	1760	612	-1281	315
7621	-710	403	1141	612	-1281	315
7626	-554	421	1230	612	-1281	315
7631	-724	426	1389	3354	-451	1896
7636	-852	124	1316	3354	-451	1896
7641	-830	601	1225	3354	-451	1896
7646	-750	828	1540	3354	-451	1896
7651	-730	747	1579	3354	-451	1896
7656	-739	755	1558	3354	-451	1896
7661	-725	805	1798	-3004	-979	-404
7666	-961	693	1723	-3004	-979	-404
7671	-793	572	1515	-3004	-979	-404
7676	-984	186	1389	-3004	-979	-404
7681	-461	666	839	-3004	-979	-404
7686	-164	895	805	-3004	-979	-404
7691	-377	899	1287	-721	207	450
7696	-710	719	1367	-721	207	450
7701	-721	561	1625	-721	207	450
7706	-635	446	2019	-721	207	450
7711	-643	447	2181	-721	207	450
7716	-649	858	1498	-721	207	450
7721	-443	893	1561	-1625	-782	394
7726	-640	925	1304	-1625	-782	394
7731	-628	555	1831	-1625	-782	394
7736	-623	694	1896	-1625	-782	394
7741	-604	570	1547	-1625	-782	394
7746	-546	486	1485	-1625	-782	394
7751	-458	429	1547	-1625	-782	394
7756	-415	302	1603	-2430	-799	356
7761	-432	173	1486	-2430	-799	356
7766	-419	153	1397	-2430	-799	356
7771	-296	161	1528	-2430	-799	356
7776	-399	176	1669	-2430	-799	356
7781	-351	166	1750	-2430	-799	356
7786	-312	65	1771	-6783	3822	3425
7791	-337	-19	2107	-6783	3822	3425
7796	-277	-17	2194	-6783	3822	3425
7801	-566	-32	1915	-6783	3822	3425
7806	-539	-102	1494	-6783	3822	3425
7811	-1320	-100	1876	-6783	3822	3425
7816	-1074	-296	2149	-60	458	414
7821	-259	-5	2070	-60	458	414
7826	-370	-179	2243	-60	458	414
7831	-577	-410	1989	-60	458	414
7836	-670	-373	1782	-60	458	414
7841	-566	-292	1923	-60	458	414
7846	-628	-154	1700	-6052	4546	683
7851	-426	20	1631	-6052	4546	683
7856	265	745	1553	-6052	4546	683
7861	-1221	45	1116	-6052	4546	683
7866	-352	-717	1805	-6052	4546	683
7871	-519	-219	1676	-6052	4546	683
7876	-1137	-892	1002	-3605	4383	-1957
7881	-1102	-773	958	-3605	4383	-1957
7886	-1366	-1323	1558	-3605	4383	-1957
7891	-1406	-1262	1854	-3605	4383	-1957
7896	-1459	-436	845	-3605	4383	-1957
7901	-1204	-628	1481	-3605	4383	-1957
7906	-970	-371	1214	-3605	4383	-1957
7911	-1239	-840	967	1384	-750	926
7916	-1533	-964	1109	1384	-750	926
7921	-1901	-1453	692	1384	-750	926
7926	-1415	-1396	1077	1384	-750	926
7931	-1386	-1006	1210	1384	-750	926
7936	-1289	-932	1170	1384	-750	926
7941	-1074	-801	902	-524	-118	518
7946	-1465	-865	1001	-524	-118	518
7951	-1161	-886	1087	-524	-118	518
7956	-1397	-1006	688	-524	-118	518
7961	-1374	-833	567	-524	-118	518
7966	-1389	-889	562	-524	-118	518
7971	-1324	-792	568	2661	-431	-227
7976	-1392	-1146	738	2661	-431	-227
7981	-1407	-1090	802	2661	-431	-227
7986	-1465	-1062	893	2661	-431	-227
7991	-1530	-1158	1094	2661	-431	-227
7996	-1510	-1062	1218	2661	-431	-227
8001	-1426	-825	1148	211	-896	449
8006	-1348	-808	1100	211	-896	449
8011	-1386	-645	1029	211	-896	449
8016	-1445	-993	957	211	-896	449
8021	-1567	-1255	1179	211	-896	449
8026	-1391	-673	897	211	-896	449
8031	-1419	-1149	1010	781	-441	17
8036	-1209	-487	783	781	-441	17
8041	-1415	-1117	1074	781	-441	17
8046	-1308	-1094	1132	781	-441	17
8051	-1417	-776	1064	781	-441	17
8056	-1521	-509	1210	781	-441	17
8061	-1489	-760	1229	781	-441	17
8066	-1507	-841	1206	669	243	-574
8071	-1296	-788	1198	669	243	-574
8076	-1338	-684	1078	669	243	-574
8081	-1377	-806	1229	669	243	-574
8086	-1381	-808	1211	669	243	-574
8091	-1377	-789	1204	669	243	-574
8096	-1349	-672	1115	-345	735	-30
8101	-1399	-903	1072	-345	735	-30
8106	-1445	-842	1039	-345	735	-30
8111	-1258	-386	1032	-345	735	-30
8116	-1224	-535	1101	-345	735	-30
8121	-1302	-589	1047	-345	735	-30
8126	-1339	-879	1142	998	-645	27
8131	-1367	-785	1167	998	-645	27
8136	-1362	-830	1210	998	-645	27
8141	-1450	-812	1289	998	-645	27
8146	-1484	-743	1258	998	-645	27
8151	-1469	-704	1249	998	-645	27
8156	-1431	-652	1220	57	-481	263
8161	-1405	-625	1229	57	-481	263
8166	-1397	-594	1230	57	-481	263
8171	-1428	-544	1245	57	-481	263
8176	-1333	-557	1204	57	-481	263
8181	-1312	-583	1219	57	-481	263
8186	-1338	-587	1235	692	-1859	-682
8191	-1442	-608	1282	692	-1859	-682
8196	-1312	-712	1162	692	-1859	-682
8201	-1271	-834	1398	692	-1859	-682
8206	-1295	-634	1373	692	-1859	-682
8211	-1285	-622	1479	692	-1859	-682
8216	-1232	-534	1407	692	-1859	-682
8221	-1251	-635	1546	787	-978	-735
8226	-1234	-628	1506	787	-978	-735
8231	-1161	-591	1438	787	-978	-735
8236	-1146	-616	1463	787	-978	-735
8241	-1115	-619	1530	787	-978	-735
8246	-1102	-620	1492	787	-978	-735
8251	-1115	-491	1353	517	-613	-238
8256	-1078	-593	1478	517	-613	-238
8261	-1017	-544	1465	517	-613	-238
8266	-1004	-524	1550	517	-613	-238
8271	-931	-498	1557	517	-613	-238
8276	-1002	-518	1561	517	-613	-238
8281	-951	-496	1577	-396	-1154	-216
8286	-993	-523	1566	-396	-1154	-216
8291	-993	-563	1575	-396	-1154	-216
8296	-946	-615	1585	-396	-1154	-216
8301	-962	-663	1503	-396	-1154	-216
8306	-878	-608	1439	-396	-1154	-216
8311	-865	-565	1434	7	-315	6
8316	-854	-640	1487	7	-315	6
8321	-848	-635	1555	7	-315	6
8326	-837	-583	1580	7	-315	6
8331	-816	-606	1622	7	-315	6
8336	-809	-636	1694	7	-315	6
8341	-788	-677	1761	540	-115	43
8346	-792	-667	1767	540	-115	43
8351	-810	-659	1755	540	-115	43
8356	-784	-650	1715	540	-115	43
8361	-801	-549	1720	540	-115	43
8366	-773	-556	1661	540	-115	43
8371	-778	-499	1618	540	-115	43
8376	-800	-507	1615	64	-322	312
8381	-788	-501	1661	64	-322	312
8386	-749	-496	1716	64	-322	312
8391	-713	-489	1720	64	-322	312
8396	-738	-478	1672	64	-322	312
8401	-745	-515	1752	64	-322	312
8406	-738	-554	1765	-118	-302	17
8411	-754	-543	1736	-118	-302	17
8416	-777	-526	1690	-118	-302	17
8421	-739	-496	1634	-118	-302	17
8426	-707	-466	1631	-118	-302	17
8431	-712	-456	1610	-118	-302	17
8436	-715	-464	1632	3	-575	-36
8441	-702	-469	1642	3	-575	-36
8446	-727	-498	1676	3	-575	-36
8451	-703	-529	1725	3	-575	-36
8456	-714	-530	1764	3	-575	-36
8461	-706	-543	1766	3	-575	-36
8466	-675	-522	1742	-40	-376	68
8471	-689	-518	1743	-40	-376	68
8476	-691	-500	1697	-40	-376	68
8481	-670	-498	1713	-40	-376	68
8486	-659	-477	1731	-40	-376	68
8491	-638	-462	1707	-40	-376	68
8496	-623	-479	1763	65	-77	-49
8501	-570	-452	1758	65	-77	-49
8506	-571	-450	1814	65	-77	-49
8511	-608	-472	1813	65	-77	-49
8516	-634	-475	1794	65	-77	-49
8521	-618	-483	1773	65	-77	-49
8526	-645	-471	1738	65	-77	-49
8531	-644	-472	1776	-137	-365	113
8536	-636	-471	1812	-137	-365	113
8541	-606	-459	1774	-137	-365	113
8546	-615	-410	1766	-137	-365	113
8551	-618	-437	1723	-137	-365	113
8556	-595	-487	1755	-137	-365	113
8561	-577	-507	1737	-45	9	-271
8566	-527	-465	1775	-45	9	-271
8571	-517	-498	1775	-45	9	-271
8576	-505	-500	1786	-45	9	-271
8581	-511	-474	1779	-45	9	-271
8586	-518	-473	1762	-45	9	-271
8591	-534	-486	1766	-163	-90	17
8596	-545	-490	1750	-163	-90	17
8601	-540	-496	1796	-163	-90	17
8606	-559	-488	1821	-163	-90	17
8611	-555	-459	1765	-163	-90	17
8616	-550	-466	1757	-163	-90	17
8621	-527	-468	1743	-227	-125	-325
8626	-524	-521	1738	-227	-125	-325
8631	-479	-521	1746	-227	-125	-325
8636	-465	-468	1739	-227	-125	-325
8641	-477	-478	1782	-227	-125	-325
8646	-529	-502	1814	-227	-125	-325
8651	-535	-529	1824	43	114	-150
8656	-524	-547	1856	43	114	-150
8661	-520	-550	1837	43	114	-150
8666	-516	-520	1800	43	114	-150
8671	-497	-515	1751	43	114	-150
8676	-479	-515	1717	43	114	-150
8681	-503	-515	1764	43	114	-150
8686	-504	-554	1753	-150	-267	-126
8691	-499	-561	1766	-150	-267	-126
8696	-467	-572	1740	-150	-267	-126
8701	-470	-541	1745	-150	-267	-126
8706	-449	-539	1745	-150	-267	-126
8711	-472	-555	1778	-150	-267	-126
8716	-473	-562	1785	-87	-5	-57
8721	-465	-552	1837	-87	-5	-57
8726	-463	-544	1855	-87	-5	-57
8731	-451	-557	1856	-87	-5	-57
8736	-451	-539	1838	-87	-5	-57
8741	-454	-555	1815	-87	-5	-57
8746	-419	-544	1799	8	149	-121
8751	-433	-550	1781	8	149	-121
8756	-454	-569	1778	8	149	-121
8761	-454	-609	1794	8	149	-121
8766	-400	-633	1803	8	149	-121
8771	-438	-603	1804	8	149	-121
8776	-454	-587	1774	-12	-147	-184
8781	-439	-568	1757	-12	-147	-184
8786	-448	-542	1763	-12	-147	-184
8791	-440	-593	1818	-12	-147	-184
8796	-445	-602	1896	-12	-147	-184
8801	-443	-602	1932	-12	-147	-184
8806	-440	-585	1891	1	105	-127
8811	-431	-575	1840	1	105	-127
8816	-434	-559	1792	1	105	-127
8821	-408	-539	1753	1	105	-127
8826	-396	-538	1735	1	105	-127
8831	-387	-543	1688	1	105	-127
8836	-418	-533	1705	1	105	-127
8841	-436	-547	1742	43	96	-218
8846	-430	-583	1730	43	96	-218
8851	-429	-570	1725	43	96	-218
8856	-446	-596	1755	43	96	-218
8861	-451	-585	1784	43	96	-218
8866	-393	-579	1812	43	96	-218
8871	-419	-557	1811	-179	-145	28
8876	-402	-544	1797	-179	-145	28
8881	-365	-538	1824	-179	-145	28
8886	-544	-553	1841	-179	-145	28
8891	-809	-373	1821	-179	-145	28
8896	-599	-477	1873	-179	-145	28
8901	-466	-591	1772	103	-44	-139
8906	-411	-552	1711	103	-44	-139
8911	-406	-613	1720	103	-44	-139
8916	-317	-616	1739	103	-44	-139
8921	-389	-531	1796	103	-44	-139
8926	-413	-576	1859	103	-44	-139
8931	-410	-554	1872	64	390	6
8936	-412	-556	1834	64	390	6
8941	-358	-574	1769	64	390	6
8946	-411	-545	1809	64	390	6
8951	-424	-615	1786	64	390	6
8956	-431	-610	1780	64	390	6
8961	-393	-581	1755	-192	-285	37
8966	-407	-577	1728	-192	-285	37
8971	-416	-590	1772	-192	-285	37
8976	-439	-578	1810	-192	-285	37
8981	-422	-538	1787	-192	-285	37
8986	-400	-504	1796	-192	-285	37
8991	-371	-518	1818	-192	-285	37
8996	-314	-504	1781	-436	-368	-105
9001	-307	-516	1831	-436	-368	-105
9006	-398	-545	1905	-436	-368	-105
9011	-404	-573	1863	-436	-368	-105
9016	-371	-583	1828	-436	-368	-105
9021	-358	-617	1798	-436	-368	-105
9026	-360	-633	1760	-25	-148	-269
9031	-369	-644	1744	-25	-148	-269
9036	-338	-633	1758	-25	-148	-269
9041	-342	-679	1750	-25	-148	-269
9046	-280	-637	1765	-25	-148	-269
9051	-294	-642	1796	-25	-148	-269
9056	-364	-670	1809	114	204	163
9061	-326	-649	1846	114	204	163
9066	-308	-628	1787	114	204	163
9071	-364	-611	1788	114	204	163
9076	-399	-602	1787	114	204	163
9081	-404	-551	1828	114	204	163
9086	-393	-549	1762	66	-101	52
9091	-391	-558	1809	66	-101	52
9096	-481	-516	1865	66	-101	52
9101	-446	-433	1772	66	-101	52
9106	-500	-463	1788	66	-101	52
9111	-464	-500	1766	66	-101	52
9116	-434	-457	1748	250	-65	82
9121	-442	-458	1835	250	-65	82
9126	-468	-444	1848	250	-65	82
9131	-467	-423	1837	250	-65	82
9136	-445	-401	1814	250	-65	82
9141	-480	-381	1834	250	-65	82
9146	-464	-349	1841	250	-65	82
9151	-471	-323	1825	128	-351	82
9156	-452	-322	1829	128	-351	82
9161	-469	-344	1838	128	-351	82
9166	-469	-301	1818	128	-351	82
9171	-472	-303	1865	128	-351	82
9176	-466	-289	1889	128	-351	82
9181	-411	-268	1845	-242	-145	-83
9186	-409	-318	1863	-242	-145	-83
9191	-397	-295	1879	-242	-145	-83
9196	-389	-290	1863	-242	-145	-83
9201	-354	-259	1857	-242	-145	-83
9206	-359	-332	1862	-242	-145	-83
9211	-344	-326	1839	-140	-224	-165
9216	-366	-304	1831	-140	-224	-165
9221	-380	-328	1856	-140	-224	-165
9226	-372	-350	1836	-140	-224	-165
9231	-348	-416	1852	-140	-224	-165
9236	-334	-372	1880	-140	-224	-165
9241	-333	-370	1886	17	6	58
9246	-329	-380	1810	17	6	58
9251	-287	-404	1876	17	6	58
9256	-334	-387	1884	17	6	58
9261	-316	-409	1868	17	6	58
9266	-300	-394	1853	17	6	58
9271	-313	-386	1874	-47	50	-41
9276	-317	-386	1797	-47	50	-41
9281	-286	-372	1827	-47	50	-41
9286	-287	-392	1862	-47	50	-41
9291	-282	-395	1891	-47	50	-41
9296	-293	-393	1855	-47	50	-41
9301	-294	-402	1851	-47	50	-41
9306	-279	-409	1886	4	79	-17
9311	-268	-406	1820	4	79	-17
9316	-271	-419	1855	4	79	-17
9321	-288	-423	1811	4	79	-17
9326	-264	-415	1860	4	79	-17
9331	-275	-405	1877	4	79	-17
9336	-295	-401	1850	-40	51	-145
9341	-310	-402	1840	-40	51	-145
9346	-274	-417	1871	-40	51	-145
9351	-267	-424	1841	-40	51	-145
9356	-298	-401	1849	-40	51	-145
9361	-255	-404	1897	-40	51	-145
9366	-278	-421	1892	2	-20	-105
9371	-294	-410	1780	2	-20	-105
9376	-260	-460	1898	2	-20	-105
9381	-288	-434	1842	2	-20	-105
9386	-312	-414	1848	2	-20	-105
9391	-296	-454	1818	2	-20	-105
9396	-299	-424	1830	-15	134	47
9401	-310	-430	1832	-15	134	47
9406	-283	-415	1819	-15	134	47
9411	-285	-443	1839	-15	134	47
9416	-257	-435	1894	-15	134	47
9421	-287	-444	1860	-15	134	47
9426	-281	-443	1860	50	-13	15
9431	-303	-404	1862	50	-13	15
9436	-294	-410	1889	50	-13	15
9441	-276	-408	1856	50	-13	15
9446	-287	-433	1827	50	-13	15
9451	-293	-430	1833	50	-13	15
9456	-252	-401	1894	50	-13	15
9461	-275	-414	1871	-109	-48	24
9466	-285	-439	1806	-109	-48	24
9471	-290	-434	1853	-109	-48	24
9476	-276	-418	1841	-109	-48	24
9481	-294	-419	1869	-109	-48	24
9486	-299	-437	1862	-109	-48	24
9491	-276	-424	1837	-28	-60	2
9496	-292	-422	1853	-28	-60	2
9501	-276	-398	1857	-28	-60	2
9506	-284	-429	1832	-28	-60	2
9511	-294	-431	1873	-28	-60	2
9516	-297	-427	1834	-28	-60	2
9521	-275	-425	1820	110	143	-57
9526	-264	-427	1899	110	143	-57
9531	-300	-420	1910	110	143	-57
9536	-280	-429	1834	110	143	-57
9541	-268	-429	1797	110	143	-57
9546	-259	-449	1847	110	143	-57
9551	-247	-410	1817	16	90	46
9556	-286	-435	1810	16	90	46
9561	-298	-442	1854	16	90	46
9566	-299	-375	1838	16	90	46
9571	-292	-397	1854	16	90	46
9576	-285	-476	1847	16	90	46
9581	-324	-399	1843	15	143	87
9586	-309	-377	1879	15	143	87
9591	-352	-363	1851	15	143	87
9596	-367	-365	1824	15	143	87
9601	-385	-363	1833	15	143	87
9606	-405	-375	1839	15	143	87
9611	-409	-354	1909	15	143	87
9616	-414	-329	1856	-21	23	163
9621	-442	-320	1819	-21	23	163
9626	-439	-328	1830	-21	23	163
9631	-422	-324	1860	-21	23	163
9636	-405	-288	1870	-21	23	163
9641	-459	-283	1837	-21	23	163
9646	-426	-325	1885	-10	136	-22
9651	-408	-307	1829	-10	136	-22
9656	-433	-266	1806	-10	136	-22
9661	-441	-298	1871	-10	136	-22
9666	-401	-283	1847	-10	136	-22
9671	-456	-294	1847	-10	136	-22
9676	-469	-275	1885	-37	-94	18
9681	-440	-252	1865	-37	-94	18
9686	-443	-303	1865	-37	-94	18
9691	-411	-289	1855	-37	-94	18
9696	-423	-263	1888	-37	-94	18
9701	-379	-288	1860	-37	-94	18
9706	-407	-290	1901	-124	106	40
9711	-407	-309	1879	-124	106	40
9716	-396	-304	1867	-124	106	40
9721	-407	-302	1854	-124	106	40
9726	-403	-297	1832	-124	106	40
9731	-424	-302	1836	-124	106	40
9736	-419	-297	1862	-73	-83	36
9741	-418	-299	1843	-73	-83	36
9746	-411	-315	1833	-73	-83	36
9751	-422	-316	1876	-73	-83	36
9756	-428	-338	1870	-73	-83	36
9761	-424	-325	1850	-73	-83	36
9766	-443	-337	1880	-73	-83	36
9771	-420	-317	1863	-46	-83	71
9776	-432	-330	1832	-46	-83	71
9781	-415	-337	1820	-46	-83	71
9786	-427	-332	1856	-46	-83	71
9791	-435	-314	1827	-46	-83	71
9796	-445	-341	1863	-46	-83	71
9801	-427	-332	1841	-46	-16	28
9806	-421	-328	1852	-46	-16	28
9811	-426	-330	1839	-46	-16	28
9816	-430	-346	1843	-46	-16	28
9821	-413	-336	1838	-46	-16	28
9826	-412	-325	1895	-46	-16	28
9831	-432	-331	1839	-76	7	-4
9836	-425	-321	1830	-76	7	-4
9841	-425	-335	1859	-76	7	-4
9846	-428	-332	1857	-76	7	-4
9851	-434	-335	1840	-76	7	-4
9856	-420	-331	1830	-76	7	-4
9861	-428	-330	1835	-82	-33	68
9866	-411	-345	1846	-82	-33	68
9871	-415	-342	1851	-82	-33	68
9876	-417	-356	1828	-82	-33	68
9881	-409	-359	1854	-82	-33	68
9886	-408	-367	1849	-82	-33	68
9891	-412	-355	1841	-14	-17	21
9896	-408	-362	1826	-14	-17	21
9901	-395	-376	1851	-14	-17	21
9906	-407	-358	1841	-14	-17	21
9911	-410	-343	1851	-14	-17	21
9916	-408	-373	1845	-14	-17	21
9921	-401	-348	1840	-14	-17	21
9926	-414	-369	1827	19	-23	61
9931	-403	-356	1858	19	-23	61
9936	-406	-357	1845	19	-23	61
9941	-404	-343	1850	19	-23	61
9946	-412	-348	1836	19	-23	61
9951	-405	-340	1860	19	-23	61
9956	-384	-329	1858	81	14	-2
9961	-424	-336	1838	81	14	-2
9966	-394	-319	1863	81	14	-2
9971	-407	-305	1871	81	14	-2
9976	-429	-309	1847	81	14	-2
9981	-413	-291	1854	81	14	-2
9986	-406	-292	1849	188	193	46
9991	-414	-309	1859	188	193	46
9996	-412	-290	1817	188	193	46
10001	-407	-294	1863	188	193	46
10006	-403	-272	1847	188	193	46
10011	-423	-257	1810	188	193	46
10016	-436	-274	1856	267	-238	-99
10021	-450	-238	1872	267	-238	-99
10026	-435	-250	1875	267	-238	-99
10031	-438	-218	1780	267	-238	-99
10036	-444	-273	1859	267	-238	-99
10041	-433	-199	1869	267	-238	-99
10046	-434	-185	1859	-716	-160	547
10051	-418	-142	1793	-716	-160	547
10056	-469	-75	1796	-716	-160	547
10061	-549	-147	1859	-716	-160	547
10066	-583	-75	1693	-716	-160	547
10071	-512	-842	2257	-716	-160	547
10076	-763	-10	1799	-716	-160	547
10081	-707	-224	1728	-238	78	91
10086	-607	-203	1811	-238	78	91
10091	-595	-233	1805	-238	78	91
10096	-582	-244	1767	-238	78	91
10101	-573	-243	1880	-238	78	91
10106	-564	-204	1836	-238	78	91
10111	-592	-273	1811	458	87	830
10116	-460	-284	1782	458	87	830
10121	-502	-332	1794	458	87	830
10126	-517	-247	2143	458	87	830
10131	-558	-208	1930	458	87	830
10136	-656	-353	1963	458	87	830
10141	-616	-230	1868	175	-6	1821
10146	-733	-368	1931	175	-6	1821
10151	-490	-168	1895	175	-6	1821
10156	-433	-21	1732	175	-6	1821
10161	-414	27	1889	175	-6	1821
10166	-597	267	1780	175	-6	1821
10171	-224	496	1681	100	-10	518
10176	-61	431	2015	100	-10	518
10181	-2	679	1770	100	-10	518
10186	-108	659	1728	100	-10	518
10191	-215	510	1824	100	-10	518
10196	19	725	1923	100	-10	518
10201	-111	672	1928	-464	542	-512
10206	-167	532	1754	-464	542	-512
10211	-28	785	1755	-464	542	-512
10216	-34	681	1816	-464	542	-512
10221	-43	600	1866	-464	542	-512
10226	78	706	1898	-464	542	-512
10231	-80	553	1877	-464	542	-512
10236	-282	389	1908	-256	374	-209
10241	-220	441	1853	-256	374	-209
10246	-316	345	1903	-256	374	-209
10251	-257	413	1947	-256	374	-209
10256	-281	360	1850	-256	374	-209
10261	-295	373	1836	-256	374	-209
10266	-302	349	1799	-228	193	-414
10271	-365	267	1833	-228	193	-414
10276	-340	294	1831	-228	193	-414
10281	-416	212	1841	-228	193	-414
10286	-399	208	1907	-228	193	-414
10291	-403	186	1871	-228	193	-414
10296	-482	79	1884	-153	130	-228
10301	-460	129	1875	-153	130	-228
10306	-481	76	1819	-153	130	-228
10311	-445	97	1892	-153	130	-228
10316	-477	56	1858	-153	130	-228
10321	-457	81	1894	-153	130	-228
10326	-505	40	1889	-147	24	-63
10331	-506	-13	1862	-147	24	-63
10336	-490	8	1872	-147	24	-63
10341	-448	34	1812	-147	24	-63
10346	-511	-35	1832	-147	24	-63
10351	-441	20	1902	-147	24	-63
10356	-440	2	1879	-99	52	-2
10361	-378	39	1837	-99	52	-2
10366	-447	17	1824	-99	52	-2
10371	-418	-11	1875	-99	52	-2
10376	-410	17	1891	-99	52	-2
10381	-441	-58	1854	-99	52	-2
10386	-474	-79	1883	-99	52	-2
10391	-445	-54	1860	-57	138	-127
10396	-453	-63	1893	-57	138	-127
10401	-452	-46	1867	-57	138	-127
10406	-446	-42	1861	-57	138	-127
10411	-423	-16	1869	-57	138	-127
10416	-423	-9	1852	-57	138	-127
10421	-454	-58	1857	-18	-33	33
10426	-469	-84	1868	-18	-33	33
10431	-498	-89	1882	-18	-33	33
10436	-482	-40	1837	-18	-33	33
10441	-490	-66	1884	-18	-33	33
10446	-509	-63	1882	-18	-33	33
10451	-470	-48	1857	-58	6	-74
10456	-519	-87	1822	-58	6	-74
10461	-499	-72	1843	-58	6	-74
10466	-493	-81	1868	-58	6	-74
10471	-488	-66	1836	-58	6	-74
10476	-503	-102	1836	-58	6	-74
10481	-500	-53	1878	-386	351	-306
10486	-514	-74	1850	-386	351	-306
10491	-542	-108	1872	-386	351	-306
10496	-515	-74	1853	-386	351	-306
10501	-543	-104	1785	-386	351	-306
10506	-601	-162	1847	-386	351	-306
10511	-545	-86	1800	-317	138	-143
10516	-676	-397	1600	-317	138	-143
10521	-552	-239	1903	-317	138	-143
10526	-686	-493	1632	-317	138	-143
10531	-789	-624	1609	-317	138	-143
10536	-614	-364	1818	-317	138	-143
10541	-664	-499	1662	-317	138	-143
10546	-615	-541	1690	281	-221	-268
10551	-585	-586	1726	281	-221	-268
10556	-520	-608	1873	281	-221	-268
10561	-406	-695	2040	281	-221	-268
10566	-270	-335	1667	281	-221	-268
10571	-313	-493	1746	281	-221	-268
10576	-264	-432	1726	-300	-30	53
10581	-248	-474	1717	-300	-30	53
10586	-297	-566	1972	-300	-30	53
10591	-194	-568	1977	-300	-30	53
10596	-33	-355	1800	-300	-30	53
10601	-9	-354	1744	-300	-30	53
10606	-100	-528	1968	-118	805	78
10611	-201	-586	1626	-118	805	78
10616	47	-432	1940	-118	805	78
10621	-49	-639	2006	-118	805	78
10626	-136	-601	1742	-118	805	78
10631	-197	-582	1581	-118	805	78
10636	-227	-582	1529	1493	-2572	349
10641	-311	-534	1118	1493	-2572	349
10646	-7	-366	1350	1493	-2572	349
10651	158	-363	1622	1493	-2572	349
10656	324	-400	1354	1493	-2572	349
10661	662	-240	2221	1493	-2572	349
10666	564	-365	2857	-503	823	198
10671	674	25	2213	-503	823	198
10676	734	87	2178	-503	823	198
10681	566	-252	2079	-503	823	198
10686	728	-108	1994	-503	823	198
10691	68	462	2227	-503	823	198
10696	1031	-221	2185	-503	823	198
10701	932	207	2257	-157	1606	-364
10706	626	247	2134	-157	1606	-364
10711	319	-177	1881	-157	1606	-364
10716	212	-33	1581	-157	1606	-364
10721	181	102	1781	-157	1606	-364
10726	-287	-370	1824	-157	1606	-364
10731	-238	-135	1775	-210	1404	207
10736	-105	-37	1772	-210	1404	207
10741	-288	-329	1921	-210	1404	207
10746	-593	-354	1943	-210	1404	207
10751	-638	-328	1602	-210	1404	207
10756	-383	-91	1882	-210	1404	207
10761	-571	-174	1577	-16	-225	28
10766	-758	-322	1804	-16	-225	28
10771	-513	30	1785	-16	-225	28
10776	-534	-115	1793	-16	-225	28
10781	-539	-111	1704	-16	-225	28
10786	-577	-83	1836	-16	-225	28
10791	-554	-114	1886	362	-524	-17
10796	-554	-117	2030	362	-524	-17
10801	-550	-100	1754	362	-524	-17
10806	-526	47	1974	362	-524	-17
10811	-481	-105	1951	362	-524	-17
10816	-396	92	2076	362	-524	-17
10821	-451	-2	1722	-329	284	-402
10826	-238	118	1742	-329	284	-402
10831	-133	83	2151	-329	284	-402
10836	-296	-362	2064	-329	284	-402
10841	-191	-182	1878	-329	284	-402
10846	-189	-203	1862	-329	284	-402
10851	-126	-145	1731	-329	284	-402
10856	-130	-119	1756	69	-126	386
10861	-185	-259	2019	69	-126	386
10866	-135	-168	1684	69	-126	386
10871	-123	-236	1923	69	-126	386
10876	-223	-180	1868	69	-126	386
10881	-256	-204	1871	69	-126	386
10886	-204	-151	1897	-54	-39	-178
10891	-66	-159	1958	-54	-39	-178
10896	-130	-170	1908	-54	-39	-178
10901	-102	-164	1958	-54	-39	-178
10906	-81	-144	1883	-54	-39	-178
10911	-93	-186	1880	-54	-39	-178
10916	-91	-192	1918	20	-10	-65
10921	-86	-202	1905	20	-10	-65
10926	-98	-166	1904	20	-10	-65
10931	-16	-135	1889	20	-10	-65
10936	-40	-159	1882	20	-10	-65
10941	-50	-161	1893	20	-10	-65
10946	-43	-164	1883	29	14	-64
10951	4	-157	1841	29	14	-64
10956	-81	-161	1930	29	14	-64
10961	-94	-124	1954	29	14	-64
10966	-89	-111	1908	29	14	-64
10971	-69	-126	1914	29	14	-64
10976	-30	-132	1883	478	974	-383
10981	-47	-136	1922	478	974	-383
10986	-44	-73	1926	478	974	-383
10991	6	-71	1992	478	974	-383
10996	-127	249	2056	478	974	-383
11001	-156	77	1829	478	974	-383
11006	-372	213	1969	478	974	-383
11011	-452	232	1977	1045	-719	991
11016	-416	246	1815	1045	-719	991
11021	-542	334	1874	1045	-719	991
11026	-663	157	1578	1045	-719	991
11031	-698	356	1809	1045	-719	991
11036	-507	681	1903	1045	-719	991
11041	-849	760	1756	-1008	1301	-361
11046	-731	254	1726	-1008	1301	-361
11051	-670	172	1784	-1008	1301	-361
11056	-618	113	1766	-1008	1301	-361
11061	-704	73	1724	-1008	1301	-361
11066	-701	171	1730	-1008	1301	-361
11071	-797	105	1818	124	-161	-336
11076	-942	-47	1802	124	-161	-336
11081	-868	-73	1731	124	-161	-336
11086	-876	-167	1673	124	-161	-336
11091	-958	-332	1746	124	-161	-336
11096	-905	-326	1716	124	-161	-336
11101	-839	-314	1689	-1173	361	-169
11106	-835	-453	1532	-1173	361	-169
11111	-686	-594	1832	-1173	361	-169
11116	-775	-520	1581	-1173	361	-169
11121	-860	-856	1710	-1173	361	-169
11126	-856	-656	1546	-1173	361	-169
11131	-864	-832	1608	-289	1295	75
11136	-872	-776	1438	-289	1295	75
11141	-947	-829	1316	-289	1295	75
11146	-994	-1101	1388	-289	1295	75
11151	-1134	-1031	1037	-289	1295	75
11156	-1128	-1005	1153	-289	1295	75
11161	-1085	-944	1326	-289	1295	75
11166	-1282	-1023	925	862	-7	198
11171	-1149	-1284	1243	862	-7	198
11176	-1285	-1005	1099	862	-7	198
11181	-1298	-944	1191	862	-7	198
11186	-1299	-1001	1189	862	-7	198
11191	-1131	-887	1193	862	-7	198
11196	-1300	-811	1246	761	-390	-259
11201	-1313	-807	1233	761	-390	-259
11206	-1309	-784	1290	761	-390	-259
11211	-1273	-761	1286	761	-390	-259
11216	-1152	-646	1350	761	-390	-259
11221	-1162	-633	1375	761	-390	-259
11226	-1165	-668	1458	1973	-1779	-307
11231	-1031	-497	1609	1973	-1779	-307
11236	-921	-419	1513	1973	-1779	-307
11241	-935	-485	1745	1973	-1779	-307
11246	-651	-236	1236	1973	-1779	-307
11251	-767	-382	1863	1973	-1779	-307
11256	-719	-203	1626	-516	-177	-411
11261	-759	-247	1861	-516	-177	-411
11266	-698	-245	1683	-516	-177	-411
11271	-696	-152	1799	-516	-177	-411
11276	-689	-129	1913	-516	-177	-411
11281	-730	-349	1791	-516	-177	-411
11286	-574	-179	1741	1303	-462	-616
11291	-652	-238	1685	1303	-462	-616
11296	-631	-227	1770	1303	-462	-616
11301	-777	-254	1822	1303	-462	-616
11306	-654	-16	1757	1303	-462	-616
11311	-706	-149	1875	1303	-462	-616
11316	-158	-221	1789	1303	-462	-616
11321	-555	3	2000	5767	940	-426
11326	-600	458	1679	5767	940	-426
11331	-454	1256	1743	5767	940	-426
11336	-260	1627	982	5767	940	-426
11341	-893	1871	-348	5767	940	-426
11346	-652	1927	-1200	5767	940	-426
11351	-689	2079	-1377	-1021	-104	477
11356	-600	1465	-813	-1021	-104	477
11361	-509	1248	-1240	-1021	-104	477
11366	-633	1460	-1727	-1021	-104	477
11371	-543	1438	-1583	-1021	-104	477
11376	-622	1390	-1556	-1021	-104	477
11381	-412	1538	-1694	4170	-1110	-1448
11386	-704	1472	-1049	4170	-1110	-1448
11391	505	1818	-1528	4170	-1110	-1448
11396	-286	1419	-2374	4170	-1110	-1448
11401	-795	1139	-804	4170	-1110	-1448
11406	-825	673	2316	4170	-1110	-1448
11411	-463	2093	647	2366	-1829	-30
11416	-735	1089	-1240	2366	-1829	-30
11421	-686	1858	750	2366	-1829	-30
11426	-1220	558	1201	2366	-1829	-30
11431	-1330	696	1364	2366	-1829	-30
11436	-1075	899	1412	2366	-1829	-30
11441	-1012	1180	1750	-1534	259	43
11446	-620	857	742	-1534	259	43
11451	-618	1436	1203	-1534	259	43
11456	-813	1624	1793	-1534	259	43
11461	-813	1518	1431	-1534	259	43
11466	-505	1619	1125	-1534	259	43
11471	-716	1504	1081	-1534	259	43
11476	-813	1394	1455	-2013	-443	1392
11481	-650	1092	1135	-2013	-443	1392
11486	-509	1401	1377	-2013	-443	1392
11491	-725	1051	1427	-2013	-443	1392
11496	-329	1164	1829	-2013	-443	1392
11501	-353	1408	1794	-2013	-443	1392
11506	-351	819	1603	-193	-370	-701
11511	-256	731	1718	-193	-370	-701
11516	-282	617	1817	-193	-370	-701
11521	-303	792	1738	-193	-370	-701
11526	-100	805	1927	-193	-370	-701
11531	-357	1079	1896	-193	-370	-701
11536	-160	653	1829	757	127	140
11541	-105	670	1712	757	127	140
11546	-72	680	1754	757	127	140
11551	-108	727	1809	757	127	140
11556	-145	824	1845	757	127	140
11561	-26	765	1676	757	127	140
11566	-99	896	1768	-66	36	90
11571	-127	864	1731	-66	36	90
11576	-40	992	1735	-66	36	90
11581	-58	786	1831	-66	36	90
11586	127	827	1711	-66	36	90
12796	-2	36	2016	-66	36	90
12801	-20	46	1974	-66	36	90
12806	-28	26	1970	-49	18	50
12811	-40	25	1896	-49	18	50
12816	-27	24	1943	-49	18	50
12821	-29	25	1898	-49	18	50
12826	-27	22	1928	-49	18	50
12831	-31	9	1901	-49	18	50
12836	-29	24	1912	-56	-5	3
12841	-36	14	1923	-56	-5	3
12846	-35	18	1920	-56	-5	3
12851	-36	23	1921	-56	-5	3
12856	-31	38	1919	-56	-5	3
12861	-35	29	1915	-56	-5	3
12866	-28	23	1909	-56	-5	3
12871	-32	26	1914	-35	-12	-24
12876	-30	20	1913	-35	-12	-24
12881	-33	32	1914	-35	-12	-24
12886	-26	18	1903	-35	-12	-24
12891	-29	27	1946	-35	-12	-24
12896	-31	25	1901	-35	-12	-24
12901	-32	33	1912	-59	35	77
12906	-27	29	1927	-59	35	77
12911	-24	32	1915	-59	35	77
12916	-31	19	1932	-59	35	77
12921	-36	25	1927	-59	35	77
12926	-35	12	1929	-59	35	77
12931	-27	22	1903	-71	3	-93
12936	-31	26	1905	-71	3	-93
12941	-46	23	1848	-71	3	-93
12946	-23	34	1924	-71	3	-93
12951	-30	30	1911	-71	3	-93
12956	-31	34	1911	-71	3	-93
12961	-28	26	1914	-62	-35	192
12966	-31	32	1905	-62	-35	192
12971	-31	5	1961	-62	-35	192
12976	-32	0	1929	-62	-35	192
12981	-21	19	1934	-62	-35	192
12986	-30	25	1915	-62	-35	192
12991	-38	19	1903	-66	28	-85
12996	-26	29	1916	-66	28	-85
13001	-30	25	1934	-66	28	-85
13006	-34	41	1923	-66	28	-85
13011	-34	38	1903	-66	28	-85
13016	-31	30	1925	-66	28	-85
13021	-30	36	1918	-66	28	-85
13026	-31	27	1909	-15	-22	189
13031	-26	38	1934	-15	-22	189
13036	-43	20	1909	-15	-22	189
13041	-29	29	1924	-15	-22	189
13046	-34	36	1915	-15	-22	189
13051	-25	32	1924	-15	-22	189
13056	-38	22	1879	-35	14	12
13061	-18	33	1931	-35	14	12
13066	-25	32	1926	-35	14	12
13071	-29	26	1920	-35	14	12
13076	-38	30	1915	-35	14	12
13081	-28	28	1906	-35	14	12
13086	-27	37	1915	-16	-6	-11
13091	-29	25	1926	-16	-6	-11
13096	-31	26	1923	-16	-6	-11
13101	-27	42	1914	-16	-6	-11
13106	-30	46	1915	-16	-6	-11
13111	-25	25	1911	-16	-6	-11
13116	-37	23	1910	-20	4	30
13121	-27	26	1921	-20	4	30
13126	-28	19	1924	-20	4	30
13131	-23	28	1911	-20	4	30
13136	-37	27	1907	-20	4	30
13141	-23	30	1924	-20	4	30
13146	-23	31	1919	-24	15	-24
13151	-18	32	1936	-24	15	-24
13156	-34	24	1921	-24	15	-24
13161	-35	24	1919	-24	15	-24
13166	-25	26	1910	-24	15	-24
13171	-26	20	1918	-24	15	-24
13176	-28	17	1900	-24	15	-24
13181	-36	29	1930	-23	21	37
13186	-30	40	1940	-23	21	37
13191	-25	37	1921	-23	21	37
13196	-24	15	1919	-23	21	37
13201	-24	17	1926	-23	21	37
13206	-23	19	1906	-23	21	37
13211	-31	12	1923	-72	25	-87
13216	-31	28	1925	-72	25	-87
13221	-35	24	1905	-72	25	-87
13226	-33	37	1920	-72	25	-87
13231	-29	27	1913	-72	25	-87
13236	-23	23	1917	-72	25	-87
13241	-27	22	1908	-35	61	102
13246	-29	28	1917	-35	61	102
13251	-27	29	1925	-35	61	102
13256	-27	33	1928	-35	61	102
13261	-24	24	1919	-35	61	102
13266	-36	20	1925	-35	61	102
13271	-26	14	1931	-29	-22	-80
13276	-24	39	1922	-29	-22	-80
13281	-34	31	1921	-29	-22	-80
13286	-24	34	1906	-29	-22	-80
13291	-32	24	1909	-29	-22	-80
13296	-33	30	1905	-29	-22	-80
13301	-36	32	1916	-80	36	-16
13306	-35	22	1918	-80	36	-16
13311	-30	31	1914	-80	36	-16
13316	-28	33	1915	-80	36	-16
13321	-28	32	1914	-80	36	-16
13326	-29	31	1908	-80	36	-16
13331	-39	25	1935	-80	36	-16
13336	-29	24	1912	-59	46	-54
13341	-31	23	1917	-59	46	-54
13346	-30	31	1899	-59	46	-54
13351	-32	37	1922	-59	46	-54
13356	-32	18	1916	-59	46	-54
13361	-22	25	1915	-59	46	-54
13366	-35	32	1914	-23	29	-5
13371	-31	29	1917	-23	29	-5
13376	-30	24	1921	-23	29	-5
13381	-28	28	1920	-23	29	-5
13386	-31	16	1913	-23	29	-5
13391	-30	31	1920	-23	29	-5
13396	-30	30	1914	-1	9	-4
13401	-32	25	1911	-1	9	-4
13406	-35	33	1926	-1	9	-4
13411	-29	19	1919	-1	9	-4
13416	-31	28	1916	-1	9	-4
13421	-26	21	1920	-1	9	-4
13426	-22	33	1922	-38	29	-13
13431	-29	25	1925	-38	29	-13
13436	-30	15	1927	-38	29	-13
13441	-26	28	1919	-38	29	-13
13446	-34	27	1928	-38	29	-13
13451	-34	35	1931	-38	29	-13
13456	-31	28	1918	-36	5	-7
13461	-34	34	1913	-36	5	-7
13466	-26	23	1905	-36	5	-7
13471	-32	30	1922	-36	5	-7
13476	-35	22	1920	-36	5	-7
13481	-28	26	1926	-36	5	-7
13486	-26	23	1927	-36	5	-7
13491	-26	33	1931	-64	-12	-57
13496	-35	34	1897	-64	-12	-57
13501	-29	34	1919	-64	-12	-57
13506	-41	31	1923	-64	-12	-57
13511	-22	27	1905	-64	-12	-57
13516	-35	12	1918	-64	-12	-57
13521	-28	28	1920	-61	-9	21
13526	-26	19	1922	-61	-9	21
13531	-44	26	1928	-61	-9	21
13536	-36	33	1926	-61	-9	21
13541	-33	29	1914	-61	-9	21
13546	-26	32	1902	-61	-9	21
13551	-30	24	1936	-37	66	-98
13556	-25	23	1909	-37	66	-98
13561	-29	30	1921	-37	66	-98
13566	-29	25	1932	-37	66	-98
13571	-34	28	1916	-37	66	-98
13576	-32	26	1915	-37	66	-98
13581	-30	30	1918	-86	-12	106
13586	-29	32	1916	-86	-12	106
13591	-29	23	1926	-86	-12	106
13596	-36	34	1903	-86	-12	106
13601	-22	35	1911	-86	-12	106
13606	-27	26	1902	-86	-12	106
13611	-40	29	1921	-53	18	59
13616	-34	23	1912	-53	18	59
13621	-33	29	1910	-53	18	59
13626	-29	49	1924	-53	18	59
13631	-33	34	1908	-53	18	59
13636	-30	18	1927	-53	18	59
13641	-27	17	1910	-53	18	59
13646	-26	15	1912	-69	2	112
13651	-32	24	1896	-69	2	112
13656	-24	29	1919	-69	2	112
13661	-26	33	1912	-69	2	112
13666	-24	24	1915	-69	2	112
13671	-20	33	1933	-69	2	112
13676	-31	27	1921	-59	25	-49
13681	-26	18	1908	-59	25	-49
13686	-22	28	1912	-59	25	-49
13691	-38	19	1933	-59	25	-49
13696	-27	22	1919	-59	25	-49
13701	-36	15	1906	-59	25	-49
13706	-39	21	1912	-27	-31	27
13711	-37	19	1928	-27	-31	27
13716	-32	8	1912	-27	-31	27
13721	-27	-27	1984	-27	-31	27
13726	-36	15	1864	-27	-31	27
13731	-27	14	1952	-27	-31	27
13736	-32	17	1914	-20	14	-30
13741	-33	23	1933	-20	14	-30
13746	-28	26	1917	-20	14	-30
13751	-27	53	1907	-20	14	-30
13756	-22	15	1926	-20	14	-30
13761	-36	29	1895	-20	14	-30
13766	-26	39	1918	-92	-25	-7
13771	-27	20	1921	-92	-25	-7
13776	-28	24	1915	-92	-25	-7
13781	-31	12	1897	-92	-25	-7
13786	-26	25	1927	-92	-25	-7
13791	-35	30	1917	-92	-25	-7
13796	-39	31	1933	-92	-25	-7
13801	-34	24	1906	-28	22	47
13806	-23	25	1924	-28	22	47
13811	-26	20	1915	-28	22	47
13816	-28	9	1911	-28	22	47
13821	-26	33	1928	-28	22	47
13826	-30	18	1921	-28	22	47
13831	-29	25	1917	-75	35	-45
13836	-26	18	1921	-75	35	-45
13841	-30	19	1912	-75	35	-45
13846	-35	11	1916	-75	35	-45
13851	-29	7	1916	-75	35	-45
13856	-31	30	1920	-75	35	-45
13861	-32	22	1912	-95	76	2
13866	-31	32	1926	-95	76	2
13871	-30	23	1917	-95	76	2
13876	-30	3	1931	-95	76	2
13881	-33	12	1913	-95	76	2
13886	-28	14	1905	-95	76	2
13891	-26	24	1923	-44	16	-115
13896	-20	29	1910	-44	16	-115
13901	-30	24	1912	-44	16	-115
13906	-22	13	1916	-44	16	-115
13911	-37	15	1928	-44	16	-115
13916	-29	27	1912	-44	16	-115
13921	-29	28	1924	-33	45	-35
13926	-36	14	1903	-33	45	-35
13931	-26	16	1932	-33	45	-35
13936	-32	15	1911	-33	45	-35
13941	-35	17	1907	-33	45	-35
13946	-25	14	1924	-33	45	-35
13951	-34	26	1902	-33	45	-35
13956	-14	27	1924	-17	39	-118
13961	-33	23	1908	-17	39	-118
13966	-28	17	1927	-17	39	-118
13971	-29	24	1914	-17	39	-118
13976	-33	39	1922	-17	39	-118
13981	-23	16	1911	-17	39	-118
13986	-35	27	1930	-30	-6	68
13991	-25	26	1926	-30	-6	68
13996	-38	18	1910	-30	-6	68
14001	-30	22	1907	-30	-6	68
14006	-26	24	1911	-30	-6	68
14011	-30	22	1915	-30	-6	68
14016	-29	24	1913	-27	-11	-46
14021	-30	32	1894	-27	-11	-46
14026	-34	18	1937	-27	-11	-46
14031	-34	38	1927	-27	-11	-46
14036	-32	26	1903	-27	-11	-46
14041	-22	19	1906	-27	-11	-46
14046	-25	27	1914	-7	15	2
14051	-21	33	1929	-7	15	2
14056	-35	36	1926	-7	15	2
14061	-31	26	1918	-7	15	2
14066	-32	26	1910	-7	15	2
14071	-29	30	1917	-7	15	2
14076	-34	10	1921	-24	-9	12
14081	-39	13	1916	-24	-9	12
14086	-34	24	1929	-24	-9	12
14091	-34	19	1895	-24	-9	12
14096	-56	29	1772	-24	-9	12
14101	-41	9	1887	-24	-9	12
14106	-14	19	1946	-24	-9	12
14111	-26	26	1868	-31	-49	-24
14116	-42	34	1932	-31	-49	-24
14121	-35	37	1908	-31	-49	-24
14126	-27	23	1907	-31	-49	-24
14131	-33	17	1941	-31	-49	-24
14136	-39	19	1912	-31	-49	-24
14141	-36	15	1925	-177	55	-7
14146	-41	9	1888	-177	55	-7
14151	-27	12	1926	-177	55	-7
14156	-30	31	1930	-177	55	-7
14161	-44	11	1898	-177	55	-7
14166	-60	24	1894	-177	55	-7
14171	-25	26	1921	-128	-1	-77
14176	-32	23	1911	-128	-1	-77
14181	-18	24	1924	-128	-1	-77
14186	-16	30	1919	-128	-1	-77
14191	-24	29	1909	-128	-1	-77
14196	-23	10	1927	-128	-1	-77
14201	-37	6	1921	-49	14	-10
14206	-31	-11	1915	-49	14	-10
14211	-28	-30	1894	-49	14	-10
14216	-23	12	1908	-49	14	-10
14221	-29	11	1935	-49	14	-10
14226	-30	9	1916	-49	14	-10
14231	-29	12	1916	-2	34	-140
14236	-21	6	1915	-2	34	-140
14241	-31	16	1920	-2	34	-140
14246	-33	6	1908	-2	34	-140
14251	-32	1	1920	-2	34	-140
14256	-29	-11	1915	-2	34	-140
14261	-34	-4	1924	-2	34	-140
14266	-30	-1	1926	-51	-31	56
14271	-24	17	1913	-51	-31	56
14276	-25	16	1905	-51	-31	56
14281	10	11	1909	-51	-31	56
14286	-12	24	1918	-51	-31	56
14291	-20	15	1914	-51	-31	56
14296	-21	5	1929	-54	-2	-115
14301	-38	-2	1913	-54	-2	-115
14306	-43	-5	1917	-54	-2	-115
14311	-43	2	1916	-54	-2	-115
14316	-26	2	1908	-54	-2	-115
14321	-35	3	1907	-54	-2	-115
14326	-29	-3	1915	-49	-24	61
14331	-24	1	1927	-49	-24	61
14336	-34	-6	1910	-49	-24	61
14341	-32	-8	1916	-49	-24	61
14346	-37	-1	1914	-49	-24	61
14351	-28	-1	1926	-49	-24	61
14356	-34	6	1906	-53	-39	-22
14361	-26	2	1924	-53	-39	-22
14366	-27	-10	1917	-53	-39	-22
14371	-25	2	1912	-53	-39	-22
14376	-28	-2	1906	-53	-39	-22
14381	-28	4	1910	-53	-39	-22
14386	-29	7	1919	-40	-26	-10
14391	-19	1	1929	-40	-26	-10
14396	-39	3	1928	-40	-26	-10
14401	-32	-18	1927	-40	-26	-10
14406	-29	-6	1915	-40	-26	-10
14411	-28	14	1904	-40	-26	-10
14416	-25	12	1917	-40	-26	-10
14421	-39	3	1910	-3	-32	56
14426	-31	-6	1905	-3	-32	56
14431	-26	-1	1906	-3	-32	56
14436	-28	-1	1908	-3	-32	56
14441	-29	-11	1908	-3	-32	56
14446	-24	-4	1894	-3	-32	56
14451	-24	4	1900	-43	2	-13
14456	-21	6	1927	-43	2	-13
14461	-26	9	1913	-43	2	-13
14466	-15	1	1908	-43	2	-13
14471	-31	-8	1918	-43	2	-13
14476	-28	-12	1912	-43	2	-13
14481	-27	-3	1912	-60	21	-19
14486	-28	-6	1924	-60	21	-19
14491	-26	11	1924	-60	21	-19
14496	-25	4	1915	-60	21	-19
14501	-23	-3	1921	-60	21	-19
14506	-30	-3	1920	-60	21	-19
14511	-22	2	1937	-50	34	-83
14516	-29	9	1919	-50	34	-83
14521	-27	1	1924	-50	34	-83
14526	-26	6	1903	-50	34	-83
14531	-22	16	1913	-50	34	-83
14536	-26	-2	1910	-50	34	-83
14541	-34	0	1927	6	-62	25
14546	-30	-1	1909	6	-62	25
14551	-37	2	1911	6	-62	25
14556	-37	0	1919	6	-62	25
14561	-25	8	1917	6	-62	25
14566	-28	3	1916	6	-62	25
14571	-24	1	1935	6	-62	25
14576	-31	0	1910	-67	46	-121
14581	-18	1	1898	-67	46	-121
14586	-28	4	1902	-67	46	-121
14591	-27	-8	1926	-67	46	-121
14596	-24	-4	1923	-67	46	-121
14601	-17	3	1929	-67	46	-121
14606	-32	-7	1924	-34	19	119
14611	-30	-1	1930	-34	19	119
14616	-28	0	1927	-34	19	119
14621	-23	1	1920	-34	19	119
14626	-24	5	1931	-34	19	119
14631	-21	4	1910	-34	19	119
14636	-29	-3	1915	-36	-5	-99
14641	-35	-6	1911	-36	-5	-99
14646	-27	3	1908	-36	-5	-99
14651	-38	3	1920	-36	-5	-99
14656	-20	-10	1921	-36	-5	-99
14661	-28	-7	1921	-36	-5	-99
14666	-32	-4	1917	-35	-1	78
14671	-25	0	1915	-35	-1	78
14676	-34	0	1913	-35	-1	78
14681	-21	-3	1908	-35	-1	78
14686	-30	5	1933	-35	-1	78
14691	-27	0	1918	-35	-1	78
14696	-19	-4	1916	-47	-16	-11
14701	-24	3	1916	-47	-16	-11
14706	-28	-4	1914	-47	-16	-11
14711	-28	5	1904	-47	-16	-11
14716	-24	5	1928	-47	-16	-11
14721	-32	4	1939	-47	-16	-11
14726	-21	-3	1908	-47	-16	-11
14731	-27	5	1913	-11	-35	-17
14736	-25	5	1918	-11	-35	-17
14741	-29	1	1907	-11	-35	-17
14746	-19	7	1909	-11	-35	-17
14751	-30	0	1922	-11	-35	-17
14756	-15	3	1917	-11	-35	-17
14761	-34	6	1914	-36	-61	-60
14766	-32	6	1923	-36	-61	-60
14771	-32	6	1908	-36	-61	-60
14776	-31	-3	1921	-36	-61	-60
14781	-33	0	1904	-36	-61	-60
14786	-21	3	1913	-36	-61	-60
14791	-26	-6	1922	-51	19	-48
14796	-27	-8	1925	-51	19	-48
14801	-30	-1	1933	-51	19	-48
14806	-33	0	1913	-51	19	-48
14811	-34	0	1909	-51	19	-48
14816	-37	5	1920	-51	19	-48
14821	-22	12	1916	-68	4	8
14826	-29	2	1918	-68	4	8
14831	-38	4	1921	-68	4	8
14836	-28	-7	1901	-68	4	8
14841	-33	-6	1909	-68	4	8
14846	-39	-9	1923	-68	4	8
14851	-25	2	1920	-4	12	-74
14856	-26	2	1923	-4	12	-74
14861	-26	1	1926	-4	12	-74
14866	-35	10	1913	-4	12	-74
14871	-22	-1	1923	-4	12	-74
14876	-19	3	1913	-4	12	-74
14881	-22	-15	1916	-4	12	-74
14886	-29	1	1917	-34	52	74
14891	-32	-11	1906	-34	52	74
14896	-26	7	1912	-34	52	74
14901	-26	13	1899	-34	52	74
14906	-18	6	1911	-34	52	74
14911	-29	1	1911	-34	52	74
14916	-29	3	1927	-45	51	-149
14921	-28	5	1917	-45	51	-149
14926	-28	-5	1933	-45	51	-149
14931	-23	2	1908	-45	51	-149
14936	-25	8	1915	-45	51	-149
14941	-28	7	1922	-45	51	-149
14946	-34	4	1915	-32	2	78
14951	-18	15	1895	-32	2	78
14956	-26	-6	1927	-32	2	78
14961	-36	11	1927	-32	2	78
14966	-20	1	1917	-32	2	78
14971	-29	-6	1911	-32	2	78
14976	-33	-3	1902	-71	-56	-96
14981	-24	-9	1922	-71	-56	-96
14986	-32	3	1907	-71	-56	-96
14991	-26	7	1908	-71	-56	-96
14996	-29	-9	1909	-71	-56	-96
15001	-29	3	1927	-71	-56	-96
15006	-33	1	1920	1	22	63
15011	-33	-7	1912	1	22	63
15016	-24	-1	1918	1	22	63
15021	-28	12	1909	1	22	63
15026	-25	2	1919	1	22	63
15031	-29	1	1916	1	22	63
15036	-25	7	1924	1	22	63
15041	-22	8	1907	-20	-25	12
15046	-28	-1	1910	-20	-25	12
15051	-27	9	1911	-20	-25	12
15056	-19	5	1912	-20	-25	12
15061	-31	7	1909	-20	-25	12
15066	-31	22	1906	-20	-25	12
15071	-26	-1	1919	-70	-4	-20
15076	-30	10	1906	-70	-4	-20
15081	-26	12	1909	-70	-4	-20
15086	-32	12	1909	-70	-4	-20
15091	-28	5	1909	-70	-4	-20
15096	-36	3	1908	-70	-4	-20
15101	-24	5	1932	-83	49	-71
15106	-25	6	1924	-83	49	-71
15111	-33	-2	1915	-83	49	-71
15116	-32	12	1912	-83	49	-71
15121	-30	4	1905	-83	49	-71
15126	-30	9	1909	-83	49	-71
15131	-34	9	1909	-112	44	-2
15136	-26	7	1917	-112	44	-2
15141	-31	13	1928	-112	44	-2
15146	-33	4	1921	-112	44	-2
15151	-38	15	1917	-112	44	-2
15156	-33	13	1906	-112	44	-2
15161	-29	4	1910	-54	-1	-7
15166	-27	4	1921	-54	-1	-7
15171	-34	-13	1922	-54	-1	-7
15176	-33	-10	1914	-54	-1	-7
15181	-22	-3	1921	-54	-1	-7
15186	-25	-2	1906	-54	-1	-7
15191	-28	12	1910	-54	-1	-7
15196	-29	-9	1913	-21	61	-98
15201	-29	-5	1914	-21	61	-98
15206	-24	-4	1906	-21	61	-98
15211	-22	2	1902	-21	61	-98
15216	-20	2	1919	-21	61	-98
15221	-25	14	1913	-21	61	-98
15226	-24	7	1910	-156	-202	-73
15231	-31	0	1929	-156	-202	-73
15236	-32	13	1897	-156	-202	-73
1916	-2016	453	79	-156	-202	-73
13921	-1999	480	92	-156	-202	-73
13926	-1997	465	106	-156	-202	-73
13931	-1991	459	107	-156	-202	-73
13936	-1992	445	92	-156	-202	-73
13941	-1993	447	105	-156	-202	-73
13946	-1980	416	114	-156	-202	-73
13951	-1981	385	117	-156	-202	-73
13956	-1966	417	118	-156	-202	-73
13961	-1974	462	143	-156	-202	-73
13966	-1981	453	87	-156	-202	-73
13971	-1975	465	78	-156	-202	-73
13976	-1983	475	123	-156	-202	-73
13981	-1980	423	144	-156	-202	-73
13986	-1977	439	118	-156	-202	-73
13991	-1972	461	61	-156	-202	-73
13996	-2027	436	90	-156	-202	-73
14001	-2072	414	84	-156	-202	-73
14006	-2027	388	85	-156	-202	-73
14011	-1979	373	124	-156	-202	-73
14016	-2010	366	99	-156	-202	-73
14021	-1952	424	119	-156	-202	-73
14026	-1972	529	94	-156	-202	-73
14031	-1991	587	86	-156	-202	-73
14036	-1994	558	159	-156	-202	-73
14041	-1963	520	183	-156	-202	-73
14046	-1946	365	212	-156	-202	-73
14051	-1890	340	163	-156	-202	-73
14056	-1919	379	131	-156	-202	-73
14061	-1899	385	159	-156	-202	-73
14066	-1856	315	195	-156	-202	-73
14071	-1877	363	186	-156	-202	-73
14076	-1907	444	158	-156	-202	-73
14081	-1958	549	57	-156	-202	-73
14086	-2048	652	27	-156	-202	-73
14091	-2048	648	14	-156	-202	-73
14096	-2077	618	26	-156	-202	-73
14101	-2027	594	50	-156	-202	-73
14106	-2023	597	15	-156	-202	-73
14111	-1987	563	7	-156	-202	-73
14116	-1994	526	-43	-156	-202	-73
14121	-2015	515	-103	-156	-202	-73
14126	-2010	507	-18	-156	-202	-73
14131	-2039	544	45	-156	-202	-73
14136	-1996	518	54	-156	-202	-73
14141	-1992	531	21	-156	-202	-73
14146	-1982	539	22	-156	-202	-73
14151	-2066	556	34	-156	-202	-73
14156	-2014	571	43	-156	-202	-73
14161	-1995	580	106	-156	-202	-73
14166	-1967	552	107	-156	-202	-73
14171	-2007	487	90	-156	-202	-73
14176	-1982	500	52	-156	-202	-73
14181	-2039	544	41	-156	-202	-73
14186	-1934	818	-158	-156	-202	-73
14191	-2104	526	277	-156	-202	-73
14196	-1899	561	121	-156	-202	-73
14201	-1938	556	141	-156	-202	-73
14206	-1973	523	198	-156	-202	-73
14211	-2036	575	154	-156	-202	-73
14216	-2024	629	96	-156	-202	-73
14221	-2045	623	109	-156	-202	-73
14226	-2058	628	117	-156	-202	-73
14231	-2102	651	114	-156	-202	-73
14236	-2161	696	49	-156	-202	-73
14241	-2247	751	70	-156	-202	-73
14246	-2172	705	163	-156	-202	-73
14251	-2135	640	203	-156	-202	-73
14256	-2151	644	203	-156	-202	-73
14261	-2165	493	75	-156	-202	-73
14266	-2202	350	-215	-156	-202	-73
14271	-2022	117	-342	-156	-202	-73
14276	-1924	46	-259	-156	-202	-73
14281	-1946	222	-45	-156	-202	-73
14286	-1964	352	167	-156	-202	-73
14291	-1922	483	176	-156	-202	-73
14296	-1900	565	103	-156	-202	-73
14301	-1924	641	116	-156	-202	-73
14306	-1900	647	54	-156	-202	-73
14311	-1882	644	2	-156	-202	-73
14316	-1887	638	6	-156	-202	-73
14321	-1854	582	16	-156	-202	-73
14326	-1786	497	76	-156	-202	-73
14331	-1720	397	85	-156	-202	-73
14336	-1656	363	113	-156	-202	-73
14341	-1586	400	78	-156	-202	-73
14346	-1570	389	2	-156	-202	-73
14351	-1611	410	55	-156	-202	-73
14356	-1724	381	96	-156	-202	-73
14361	-1786	406	86	-156	-202	-73
14366	-1842	403	12	-156	-202	-73
14371	-1903	414	-22	-156	-202	-73
14376	-2063	525	-103	-156	-202	-73
14381	-2192	558	-113	-156	-202	-73
14386	-2257	575	-132	-156	-202	-73
14391	-2324	662	-129	-156	-202	-73
14396	-2345	723	-86	-156	-202	-73
14401	-2341	627	-75	-156	-202	-73
14406	-2221	532	-74	-156	-202	-73
14411	-2157	491	-40	-156	-202	-73
14416	-2090	461	-19	-156	-202	-73
14421	-1974	454	-51	-156	-202	-73
14426	-1955	473	-35	-156	-202	-73
14431	-1938	497	9	-156	-202	-73
14436	-1918	457	-11	-156	-202	-73
14441	-1901	476	-60	-156	-202	-73
14446	-1902	549	-95	-156	-202	-73
14451	-1937	528	-91	-156	-202	-73
14456	-1928	532	-177	-156	-202	-73
14461	-1948	519	-311	-156	-202	-73
14466	-1987	512	-366	-156	-202	-73
14471	-2067	600	-227	-156	-202	-73
14476	-2037	691	-220	-156	-202	-73
14481	-2029	648	-286	-156	-202	-73
14486	-2046	639	-279	-156	-202	-73
14491	-2069	676	-241	-156	-202	-73
14496	-2085	684	-134	-156	-202	-73
14501	-2020	637	-22	-156	-202	-73
14506	-1975	582	46	-156	-202	-73
14511	-1912	503	84	-156	-202	-73
14516	-1819	478	56	-156	-202	-73
14521	-1853	500	-75	-156	-202	-73
14526	-1848	545	-151	-156	-202	-73
14531	-1882	597	-139	-156	-202	-73
14536	-2166	-38	-858	-156	-202	-73
14541	-1899	575	-253	-156	-202	-73
14546	-1973	550	-90	-156	-202	-73
14551	-2053	563	1	-156	-202	-73
14556	-2064	639	35	-156	-202	-73
14561	-2137	589	9	-156	-202	-73
14566	-2078	577	-119	-156	-202	-73
14571	-2091	690	-291	-156	-202	-73
14576	-2055	642	-179	-156	-202	-73
14581	-1991	498	-60	-156	-202	-73
14586	-1863	320	-170	-156	-202	-73
14591	-1894	568	-372	-156	-202	-73
14596	-1934	675	-436	-156	-202	-73
14601	-1930	630	-359	-156	-202	-73
14606	-1870	528	-69	-156	-202	-73
14611	-1932	574	83	-156	-202	-73
14616	-2011	633	44	-156	-202	-73
14621	-1986	583	-147	-156	-202	-73
14626	-2019	599	-130	-156	-202	-73
14631	-2008	559	-48	-156	-202	-73
14636	-1973	591	-119	-156	-202	-73
14641	-1991	736	-32	-156	-202	-73
14646	-2028	784	53	-156	-202	-73
14651	-2017	709	8	-156	-202	-73
14656	-1960	658	16	-156	-202	-73
14661	-1950	629	19	-156	-202	-73
14666	-1945	582	-29	-156	-202	-73
14671	-1937	594	-101	-156	-202	-73
14676	-1968	611	-148	-156	-202	-73
14681	-1939	628	-129	-156	-202	-73
14686	-1930	630	-69	-156	-202	-73
14691	-1979	666	-27	-156	-202	-73
14696	-1969	737	-112	-156	-202	-73
14701	-2001	752	-157	-156	-202	-73
14706	-1995	760	-223	-156	-202	-73
14711	-1974	683	-298	-156	-202	-73
14716	-1949	621	-92	-156	-202	-73
14721	-1894	563	-85	-156	-202	-73
14726	-1939	530	-122	-156	-202	-73
14731	-1915	567	-78	-156	-202	-73
14736	-1917	583	-279	-156	-202	-73
14741	-1925	717	-238	-156	-202	-73
14746	-1973	811	-124	-156	-202	-73
14751	-1985	813	-179	-156	-202	-73
14756	-1960	856	-68	-156	-202	-73
14761	-2045	761	-59	-156	-202	-73
14766	-2023	778	2	-156	-202	-73
14771	-1952	703	36	-156	-202	-73
14776	-1932	652	38	-156	-202	-73
14781	-1896	611	-14	-156	-202	-73
14786	-1903	624	-31	-156	-202	-73
14791	-1927	599	-60	-156	-202	-73
14796	-1914	582	-165	-156	-202	-73
14801	-1923	616	-191	-156	-202	-73
14806	-1902	550	-170	-156	-202	-73
14811	-1891	511	-146	-156	-202	-73
14816	-1878	560	-88	-156	-202	-73
14821	-1867	604	-33	-156	-202	-73
14826	-1885	634	-2	-156	-202	-73
14831	-1923	659	73	-156	-202	-73
14836	-1899	660	90	-156	-202	-73
14841	-1920	733	-27	-156	-202	-73
14846	-1990	833	-225	-156	-202	-73
14851	-2002	778	-325	-156	-202	-73
14856	-1983	704	-208	-156	-202	-73
14861	-2016	770	-256	-156	-202	-73
14866	-2025	801	-414	-156	-202	-73
14871	-2053	767	-251	-156	-202	-73
14876	-2026	738	-99	-156	-202	-73
14881	-1960	687	-139	-156	-202	-73
14886	-1930	658	-113	-156	-202	-73
14891	-1915	635	-27	-156	-202	-73
14896	-1915	640	-83	-156	-202	-73
14901	-2020	562	-135	-156	-202	-73
14906	-1826	732	-368	-156	-202	-73
14911	-2017	696	-60	-156	-202	-73
14916	-1972	734	-159	-156	-202	-73
14921	-1933	749	-235	-156	-202	-73
14926	-1954	666	-352	-156	-202	-73
14931	-1895	696	-304	-156	-202	-73
14936	-1940	675	-342	-156	-202	-73
14941	-1922	675	-310	-156	-202	-73
14946	-1932	693	-268	-156	-202	-73
14951	-1944	709	-199	-156	-202	-73
14956	-1939	657	-200	-156	-202	-73
14961	-1976	643	-203	-156	-202	-73
14966	-1969	741	-198	-156	-202	-73
14971	-1996	732	-163	-156	-202	-73
14976	-1973	645	-311	-156	-202	-73
14981	-1953	622	-373	-156	-202	-73
14986	-1945	601	-337	-156	-202	-73
14991	-1928	658	-313	-156	-202	-73
14996	-1921	698	-350	-156	-202	-73
15001	-1930	735	-336	-156	-202	-73
15006	-1931	720	-299	-156	-202	-73
15011	-1914	699	-240	-156	-202	-73
15016	-1892	670	-112	-156	-202	-73
15021	-1900	673	-89	-156	-202	-73
15026	-1915	698	-132	-156	-202	-73
15031	-1894	686	-232	-156	-202	-73
15036	-1894	662	-260	-156	-202	-73
15041	-1909	645	-264	-156	-202	-73
15046	-1931	666	-182	-156	-202	-73
15051	-1975	618	-318	-156	-202	-73
15056	-1940	640	-378	-156	-202	-73
15061	-1952	648	-201	-156	-202	-73
15066	-1983	658	-146	-156	-202	-73
15071	-1963	722	-107	-156	-202	-73
15076	-1966	727	-143	-156	-202	-73
15081	-1963	731	-117	-156	-202	-73
15086	-1927	717	-113	-156	-202	-73
15091	-1897	676	-142	-156	-202	-73
15096	-1897	653	-101	-156	-202	-73
15101	-1906	641	-191	-156	-202	-73
15106	-1909	655	-254	-156	-202	-73
15111	-1916	690	-289	-156	-202	-73
15116	-1958	721	-276	-156	-202	-73
15121	-1946	762	-209	-156	-202	-73
15126	-1997	741	-165	-156	-202	-73
15131	-2011	758	-176	-156	-202	-73
15136	-1997	798	-151	-156	-202	-73
15141	-1997	747	-155	-156	-202	-73
15146	-1954	684	-128	-156	-202	-73
15151	-1940	627	-161	-156	-202	-73
15156	-1915	590	-125	-156	-202	-73
15161	-1855	651	-182	-156	-202	-73
15166	-1867	676	-241	-156	-202	-73
15171	-1862	695	-83	-156	-202	-73
15176	-1886	753	-158	-156	-202	-73
15181	-1922	807	-95	-156	-202	-73
15186	-1931	824	-87	-156	-202	-73
15191	-1960	814	-178	-156	-202	-73
15196	-1957	763	-277	-156	-202	-73
15201	-2008	704	-297	-156	-202	-73
15206	-1986	678	-279	-156	-202	-73
15211	-1960	701	-223	-156	-202	-73
15216	-1950	765	-170	-156	-202	-73
15221	-1934	803	18	-156	-202	-73
15226	-1910	865	133	-156	-202	-73
15231	-1882	804	274	-156	-202	-73
15236	-1912	745	-3	-156	-202	-73
15241	-1862	711	-26	-156	-202	-73
15246	-1867	717	-42	-156	-202	-73
15251	-1884	713	-118	-156	-202	-73
15256	-1885	704	-95	-248	-212	43
15261	-1895	730	-40	-248	-212	43
15266	-1919	784	-130	-248	-212	43
15271	-1934	788	-233	-248	-212	43
15276	-1948	766	-93	-248	-212	43
15281	-1916	747	115	-248	-212	43
15286	-1924	729	-29	-66	-180	55
15291	-1914	769	32	-66	-180	55
15296	-1936	762	-11	-66	-180	55
15301	-1895	733	-5	-66	-180	55
15306	-1880	719	38	-66	-180	55
15311	-1920	744	68	-66	-180	55
15316	-1903	767	98	-154	-157	19
15321	-1905	800	84	-154	-157	19
15326	-1903	866	70	-154	-157	19
15331	-1928	727	42	-154	-157	19
15336	-1909	756	-24	-154	-157	19
15341	-1882	749	19	-154	-157	19
15346	-1902	743	38	-154	-157	19
15351	-1891	736	10	-13	-122	84
15356	-1888	748	50	-13	-122	84
15361	-1872	753	91	-13	-122	84
15366	-1857	752	97	-13	-122	84
15371	-1868	759	129	-13	-122	84
15376	-1860	778	101	-13	-122	84
15381	-1874	758	95	14	-567	-20
15386	-1904	773	92	14	-567	-20
15391	-1932	828	40	14	-567	-20
15396	-1946	843	61	14	-567	-20
15401	-1940	835	3	14	-567	-20
15406	-1921	815	273	14	-567	-20
15411	-1927	811	210	23	27	-36
15416	-1913	795	243	23	27	-36
15421	-1901	798	202	23	27	-36
15426	-1903	796	172	23	27	-36
15431	-1886	792	165	23	27	-36
15436	-1884	762	148	23	27	-36
15441	-1869	738	94	32	79	-36
15446	-1856	740	165	32	79	-36
15451	-1861	709	169	32	79	-36
15456	-1864	761	122	32	79	-36
15461	-1848	775	150	32	79	-36
15466	-1862	745	150	32	79	-36
15471	-1890	788	110	19	53	15
15476	-1926	809	108	19	53	15
15481	-1935	832	26	19	53	15
15486	-1953	861	19	19	53	15
15491	-1952	861	19	19	53	15
15496	-1950	863	46	19	53	15
15501	-1935	851	86	19	53	15
15506	-1911	809	130	174	-43	-90
15511	-1894	783	165	174	-43	-90
15516	-1871	752	158	174	-43	-90
15521	-1863	775	149	174	-43	-90
15526	-1870	772	152	174	-43	-90
15531	-1843	731	132	174	-43	-90
15536	-1848	738	133	-55	-108	-4
15541	-1867	783	89	-55	-108	-4
15546	-1891	812	64	-55	-108	-4
15551	-1915	823	48	-55	-108	-4
15556	-1892	824	-16	-55	-108	-4
15561	-1864	853	196	-55	-108	-4
15566	-2000	725	217	-29	-182	3
15571	-1865	805	167	-29	-182	3
15576	-1877	803	156	-29	-182	3
15581	-1895	743	123	-29	-182	3
15586	-1854	749	22	-29	-182	3
15591	-1843	755	14	-29	-182	3
15596	-1881	789	88	-17	-3	-1
15601	-1917	821	128	-17	-3	-1
15606	-1914	820	126	-17	-3	-1
15611	-1921	795	128	-17	-3	-1
15616	-1896	767	140	-17	-3	-1
15621	-1897	798	146	-17	-3	-1
15626	-1901	797	172	-50	-58	41
15631	-1888	799	166	-50	-58	41
15636	-1866	780	163	-50	-58	41
15641	-1878	760	136	-50	-58	41
15646	-1880	766	100	-50	-58	41
15651	-1883	760	142	-50	-58	41
15656	-1897	768	156	-50	-58	41
15661	-1902	814	133	38	-124	-46
15666	-1907	688	82	38	-124	-46
15671	-1878	775	176	38	-124	-46
15676	-1903	789	189	38	-124	-46
15681	-1897	777	159	38	-124	-46
15686	-1884	778	137	38	-124	-46
15691	-1883	794	100	-3	-8	-49
15696	-1898	796	88	-3	-8	-49
15701	-1896	748	126	-3	-8	-49
15706	-1859	769	168	-3	-8	-49
15711	-1896	762	149	-3	-8	-49
15716	-1900	762	169	-3	-8	-49
15721	-1875	747	176	104	-7	-89
15726	-1873	723	169	104	-7	-89
15731	-1879	755	164	104	-7	-89
15736	-1873	768	105	104	-7	-89
15741	-1884	768	95	104	-7	-89
15746	-1895	790	110	104	-7	-89
15751	-1869	745	145	114	159	-27
15756	-1888	775	136	114	159	-27
15761	-1874	798	149	114	159	-27
15766	-1884	785	157	114	159	-27
15771	-1872	741	207	114	159	-27
15776	-1867	746	244	114	159	-27
15781	-1847	678	182	56	-141	18
15786	-1860	694	146	56	-141	18
15791	-1870	732	136	56	-141	18
15796	-1880	788	117	56	-141	18
15801	-1962	847	70	56	-141	18
15806	-2002	831	48	56	-141	18
15811	-1889	732	51	56	-141	18
15816	-1942	795	70	60	77	-93
15821	-1925	825	97	60	77	-93
15826	-1943	775	146	60	77	-93
15831	-1919	760	244	60	77	-93
15836	-1878	756	234	60	77	-93
15841	-1884	767	198	60	77	-93
15846	-1850	758	125	-23	-8	-145
15851	-1863	771	66	-23	-8	-145
15856	-1855	747	91	-23	-8	-145
15861	-1838	736	147	-23	-8	-145
15866	-1904	762	197	-23	-8	-145
15871	-1913	765	175	-23	-8	-145
15876	-1887	755	166	45	9	49
15881	-1871	739	158	45	9	49
15886	-1877	747	165	45	9	49
15891	-1887	748	125	45	9	49
15896	-1848	729	97	45	9	49
15901	-1898	782	91	45	9	49
15906	-1925	784	86	5	14	-46
15911	-1921	758	103	5	14	-46
15916	-1940	776	84	5	14	-46
15921	-1955	779	102	5	14	-46
15926	-1969	782	115	5	14	-46
15931	-1954	774	145	5	14	-46
15936	-1968	790	120	77	46	-82
15941	-1948	787	74	77	46	-82
15946	-1949	774	35	77	46	-82
15951	-1942	735	57	77	46	-82
15956	-1929	711	76	77	46	-82
15961	-1925	709	144	77	46	-82
15966	-1885	687	179	77	46	-82
15971	-1817	698	189	-124	-47	-93
15976	-1855	709	224	-124	-47	-93
15981	-1873	736	235	-124	-47	-93
15986	-1851	743	181	-124	-47	-93
15991	-1935	783	80	-124	-47	-93
15996	-1950	803	55	-124	-47	-93
16001	-1955	771	25	-50	4	-52
16006	-1985	769	15	-50	4	-52
16011	-1940	759	83	-50	4	-52
16016	-1897	718	147	-50	4	-52
16021	-1858	709	151	-50	4	-52
16026	-1805	690	152	-50	4	-52
16031	-1802	679	197	-102	36	74
16036	-1802	686	189	-102	36	74
16041	-1848	714	166	-102	36	74
16046	-1900	755	105	-102	36	74
16051	-1936	756	75	-102	36	74
16056	-1961	754	65	-102	36	74
16061	-1944	775	32	12	40	-74
16066	-1957	777	24	12	40	-74
16071	-1952	753	102	12	40	-74
16076	-1916	736	136	12	40	-74
16081	-1900	745	114	12	40	-74
16086	-1932	778	142	12	40	-74
16091	-1882	731	160	-58	-50	5
16096	-1913	766	115	-58	-50	5
16101	-1927	776	78	-58	-50	5
16106	-1939	774	93	-58	-50	5
16111	-1929	754	116	-58	-50	5
16116	-1936	763	95	-58	-50	5
16121	-1927	749	101	-58	-50	5
16126	-1914	731	136	15	-13	-136
16131	-1898	726	164	15	-13	-136
16136	-1885	703	165	15	-13	-136
16141	-1883	737	155	15	-13	-136
16146	-1898	755	118	15	-13	-136
16151	-1929	773	109	15	-13	-136
16156	-1949	785	107	-53	-37	2
16161	-1938	781	94	-53	-37	2
16166	-1944	759	100	-53	-37	2
16171	-1936	749	131	-53	-37	2
16176	-1907	750	139	-53	-37	2
16181	-1883	740	133	-53	-37	2
16186	-1871	740	130	-27	-81	5
16191	-1894	755	103	-27	-81	5
16196	-1885	761	82	-27	-81	5
16201	-1915	750	104	-27	-81	5
16206	-1905	753	137	-27	-81	5
16211	-1909	756	119	-27	-81	5
16216	-1901	713	131	-99	-11	-46
16221	-1888	729	143	-99	-11	-46
16226	-1886	728	167	-99	-11	-46
16231	-1896	730	149	-99	-11	-46
16236	-1895	734	156	-99	-11	-46
16241	-1902	723	144	-99	-11	-46
16246	-1916	737	132	-40	-27	-17
16251	-1923	743	122	-40	-27	-17
16256	-1919	747	120	-40	-27	-17
16261	-1918	753	127	-40	-27	-17
16266	-1902	768	140	-40	-27	-17
16271	-1918	772	140	-40	-27	-17
16276	-1909	786	149	-40	-27	-17
16281	-1886	744	157	-86	-11	-20
16286	-1892	732	162	-86	-11	-20
16291	-1903	733	154	-86	-11	-20
16296	-1909	725	164	-86	-11	-20
16301	-1909	713	156	-86	-11	-20
16306	-1900	728	155	-86	-11	-20
16311	-1913	719	144	-31	22	-48
16316	-1925	728	162	-31	22	-48
16321	-1923	715	156	-31	22	-48
16326	-1919	717	148	-31	22	-48
16331	-1908	747	157	-31	22	-48
16336	-1895	762	128	-31	22	-48
16341	-1905	760	142	-24	14	-60
16346	-1867	731	158	-24	14	-60
16351	-1865	731	155	-24	14	-60
16356	-1863	727	144	-24	14	-60
16361	-1885	727	142	-24	14	-60
16366	-1905	742	130	-24	14	-60
16371	-1932	741	117	-11	-8	58
16376	-1953	744	99	-11	-8	58
16381	-1959	739	130	-11	-8	58
16386	-1939	733	141	-11	-8	58
16391	-1945	743	148	-11	-8	58
16396	-1909	741	146	-11	-8	58
16401	-1895	728	163	-104	3	11
16406	-1890	741	142	-104	3	11
16411	-1897	742	146	-104	3	11
16416	-1891	736	153	-104	3	11
16421	-1892	719	173	-104	3	11
16426	-1880	724	178	-104	3	11
16431	-1893	724	179	-104	3	11
16436	-1889	734	185	-16	-31	47
16441	-1894	719	167	-16	-31	47
16446	-1907	741	138	-16	-31	47
16451	-1915	750	125	-16	-31	47
16456	-1922	742	138	-16	-31	47
16461	-1931	741	127	-16	-31	47
16466	-1919	743	139	-43	-61	-11
16471	-1921	739	159	-43	-61	-11
16476	-1910	732	162	-43	-61	-11
16481	-1911	747	145	-43	-61	-11
16486	-1923	747	150	-43	-61	-11
16491	-1908	742	138	-43	-61	-11
16496	-1911	721	133	-17	33	-32
16501	-1916	715	157	-17	33	-32
16506	-1903	709	161	-17	33	-32
16511	-1904	717	151	-17	33	-32
16516	-1913	720	152	-17	33	-32
16521	-1903	737	139	-17	33	-32
16526	-1903	749	144	-26	-55	-19
16531	-1895	762	137	-26	-55	-19
16536	-1894	762	141	-26	-55	-19
16541	-1890	756	146	-26	-55	-19
16546	-1890	740	158	-26	-55	-19
16551	-1911	743	143	-26	-55	-19
16556	-1913	736	115	-53	3	-46
16561	-1926	723	117	-53	3	-46
16566	-1932	728	135	-53	3	-46
16571	-1935	715	169	-53	3	-46
16576	-1950	732	155	-53	3	-46
16581	-1947	728	139	-53	3	-46
16586	-1962	749	133	-53	3	-46
16591	-1961	740	171	-108	13	-51
16596	-1959	752	148	-108	13	-51
16601	-1970	756	158	-108	13	-51
16606	-1954	746	111	-108	13	-51
16611	-1942	777	108	-108	13	-51
16616	-1954	704	148	-108	13	-51
16621	-1907	724	165	90	32	-300
16626	-1914	759	133	90	32	-300
16631	-1918	745	194	90	32	-300
16636	-1883	720	170	90	32	-300
16641	-1871	687	175	90	32	-300
16646	-1877	690	149	90	32	-300
16651	-1885	680	175	-110	-10	78
16656	-1893	676	164	-110	-10	78
16661	-1916	659	174	-110	-10	78
16666	-1895	699	-35	-110	-10	78
16671	-1916	739	135	-110	-10	78
16676	-1798	675	158	-110	-10	78
16681	-1894	650	122	-79	105	-76
16686	-1874	718	232	-79	105	-76
16691	-1904	780	162	-79	105	-76
16696	-1918	747	187	-79	105	-76
16701	-1859	720	228	-79	105	-76
16706	-1912	693	172	-79	105	-76
16711	-1926	721	155	-118	-53	-108
16716	-1942	728	138	-118	-53	-108
16721	-1954	748	110	-118	-53	-108
16726	-1945	743	119	-118	-53	-108
16731	-1949	727	134	-118	-53	-108
16736	-1934	708	122	-118	-53	-108
16741	-1934	719	132	-118	-53	-108
16746	-1930	687	131	-43	-5	-58
16751	-1921	707	141	-43	-5	-58
16756	-1919	702	156	-43	-5	-58
16761	-1911	686	158	-43	-5	-58
16766	-1907	685	145	-43	-5	-58
16771	-1917	676	127	-43	-5	-58
16776	-1919	693	130	31	-100	-60
16781	-1921	693	148	31	-100	-60
16786	-1934	703	151	31	-100	-60
16791	-1919	710	157	31	-100	-60
16796	-1917	712	149	31	-100	-60
16801	-1887	680	167	31	-100	-60
16806	-1881	672	191	3	-351	-33
16811	-1866	666	180	3	-351	-33
16816	-1871	661	161	3	-351	-33
16821	-1888	683	185	3	-351	-33
16826	-1903	710	183	3	-351	-33
16831	-1933	719	164	3	-351	-33
16836	-1940	731	149	-135	-241	-79
16841	-1938	719	134	-135	-241	-79
16846	-1938	684	140	-135	-241	-79
16851	-1943	682	180	-135	-241	-79
16856	-1935	697	233	-135	-241	-79
16861	-1907	676	248	-135	-241	-79
16866	-1893	655	236	-4	260	-45
16871	-1838	679	0	-4	260	-45
16876	-1892	555	173	-4	260	-45
16881	-1894	600	314	-4	260	-45
16886	-1888	687	232	-4	260	-45
16891	-1915	691	212	-4	260	-45
16896	-1900	691	211	-4	260	-45
16901	-1908	676	180	-90	431	-45
16906	-1889	654	188	-90	431	-45
16911	-1885	641	215	-90	431	-45
16916	-1899	651	194	-90	431	-45
16921	-1932	692	158	-90	431	-45
16926	-1940	734	144	-90	431	-45
16931	-1952	745	117	-85	-119	97
16936	-1969	753	133	-85	-119	97
16941	-1937	729	133	-85	-119	97
16946	-1956	697	161	-85	-119	97
16951	-1926	688	186	-85	-119	97
16956	-1914	689	219	-85	-119	97
16961	-1918	692	181	-88	-84	-114
16966	-1921	722	169	-88	-84	-114
16971	-1928	698	193	-88	-84	-114
16976	-1914	690	188	-88	-84	-114
16981	-1913	707	158	-88	-84	-114
16986	-1923	710	167	-88	-84	-114
16991	-1937	704	107	-33	-91	99
16996	-1937	678	134	-33	-91	99
17001	-1934	645	158	-33	-91	99
17006	-1922	650	148	-33	-91	99
17011	-1909	649	177	-33	-91	99
17016	-1919	665	202	-33	-91	99
17021	-1886	667	202	-48	154	-10
17026	-1887	671	182	-48	154	-10
17031	-1900	686	172	-48	154	-10
17036	-1907	705	160	-48	154	-10
17041	-1923	702	191	-48	154	-10
17046	-1943	704	197	-48	154	-10
17051	-1940	705	154	-48	154	-10
17056	-1930	719	149	-60	42	11
17061	-1915	699	156	-60	42	11
17066	-1899	672	195	-60	42	11
17071	-1894	652	187	-60	42	11
17076	-1887	658	184	-60	42	11
17081	-1905	680	175	-60	42	11
17086	-1915	702	167	-76	75	-10
17091	-1937	705	189	-76	75	-10
17096	-1932	702	172	-76	75	-10
17101	-1934	695	153	-76	75	-10
17106	-1931	683	182	-76	75	-10
17111	-1933	681	184	-76	75	-10
17116	-1919	681	173	-50	-15	-17
17121	-1906	673	179	-50	-15	-17
17126	-1888	668	174	-50	-15	-17
17131	-1893	678	187	-50	-15	-17
17136	-1898	698	169	-50	-15	-17
17141	-1902	694	184	-50	-15	-17
17146	-1908	697	150	3	72	-30
17151	-1922	691	165	3	72	-30
17156	-1933	698	135	3	72	-30
17161	-1925	687	177	3	72	-30
17166	-1924	679	196	3	72	-30
17171	-1920	680	190	3	72	-30
17176	-1906	682	186	-55	-158	-26
17181	-1891	679	176	-55	-158	-26
17186	-1899	696	191	-55	-158	-26
17191	-1920	723	134	-55	-158	-26
17196	-1930	723	146	-55	-158	-26
17201	-1923	704	185	-55	-158	-26
17206	-1929	694	174	-55	-158	-26
17211	-1930	694	206	-40	-264	-13
17216	-1943	711	155	-40	-264	-13
17221	-1945	713	140	-40	-264	-13
17226	-1932	699	159	-40	-264	-13
17231	-1931	685	209	-40	-264	-13
17236	-1910	687	210	-40	-264	-13
17241	-1903	700	174	-76	-198	-162
17246	-1906	699	215	-76	-198	-162
17251	-1898	679	222	-76	-198	-162
17256	-1897	682	186	-76	-198	-162
17261	-1916	678	233	-76	-198	-162
17266	-1917	678	250	-76	-198	-162
17271	-1925	692	248	-52	-532	3
17276	-1927	657	294	-52	-532	3
17281	-1869	667	338	-52	-532	3
17286	-1906	660	271	-52	-532	3
17291	-1867	659	278	-52	-532	3
17296	-1873	682	270	-52	-532	3
17301	-1885	726	178	-103	-101	81
17306	-1824	737	902	-103	-101	81
17311	-1915	687	225	-103	-101	81
17316	-1894	658	243	-103	-101	81
17321	-1924	697	227	-103	-101	81
17326	-1919	702	279	-103	-101	81
17331	-1902	668	305	-14	-11	-80
17336	-1895	659	319	-14	-11	-80
17341	-1877	662	338	-14	-11	-80
17346	-1873	649	363	-14	-11	-80
17351	-1895	682	308	-14	-11	-80
17356	-1894	675	298	-14	-11	-80
17361	-1895	664	291	-14	-11	-80
17366	-1898	674	288	-95	331	61
17371	-1912	681	261	-95	331	61
17376	-1886	697	342	-95	331	61
17381	-1914	713	386	-95	331	61
17386	-1905	693	185	-95	331	61
17391	-1898	650	188	-95	331	61
17396	-1878	675	326	-51	221	5
17401	-1894	699	297	-51	221	5
17406	-1878	721	253	-51	221	5
17411	-1882	697	289	-51	221	5
17416	-1889	687	288	-51	221	5
17421	-1883	647	323	-51	221	5
17426	-1904	681	230	-35	-121	-42
17431	-1914	710	264	-35	-121	-42
17436	-1938	711	247	-35	-121	-42
17441	-1939	755	235	-35	-121	-42
17446	-1927	741	256	-35	-121	-42
17451	-1932	716	250	-35	-121	-42
17456	-1922	716	211	-64	-259	-41
17461	-1906	711	269	-64	-259	-41
17466	-1900	692	227	-64	-259	-41
17471	-1890	697	218	-64	-259	-41
17476	-1861	665	316	-64	-259	-41
17481	-1859	646	303	-64	-259	-41
17486	-1854	644	318	-27	39	19
17491	-1859	681	318	-27	39	19
17496	-1885	711	314	-27	39	19
17501	-1902	725	260	-27	39	19
17506	-1941	723	297	-27	39	19
17511	-1931	687	306	-27	39	19
17516	-1920	701	292	-27	39	19
17521	-1923	693	294	-18	99	-131
17526	-1909	674	297	-18	99	-131
17531	-1912	708	299	-18	99	-131
17536	-1887	695	316	-18	99	-131
17541	-1871	676	297	-18	99	-131
17546	-1866	677	311	-18	99	-131
17551	-1862	691	298	-66	3	91
17556	-1862	704	297	-66	3	91
17561	-1865	701	313	-66	3	91
17566	-1872	724	286	-66	3	91
17571	-1890	694	287	-66	3	91
17576	-1880	709	279	-66	3	91
17581	-1894	722	285	-20	-17	-29
17586	-1900	731	286	-20	-17	-29
17591	-1903	727	297	-20	-17	-29
17596	-1905	701	262	-20	-17	-29
17601	-1885	703	342	-20	-17	-29
17606	-1942	674	292	-20	-17	-29
17611	-1912	711	268	-59	-27	28
17616	-1915	684	262	-59	-27	28
17621	-1924	691	340	-59	-27	28
17626	-1877	682	288	-59	-27	28
17631	-1887	706	297	-59	-27	28
17636	-1879	712	268	-59	-27	28
17641	-1902	720	251	-60	22	104
17646	-1892	724	255	-60	22	104
17651	-1908	704	244	-60	22	104
17656	-1899	709	247	-60	22	104
17661	-1918	674	296	-60	22	104
17666	-1896	697	283	-60	22	104
17671	-1934	723	168	-60	22	104
17676	-1875	700	269	-57	-131	-39
17681	-1881	660	264	-57	-131	-39
17686	-1853	673	267	-57	-131	-39
17691	-1849	691	326	-57	-131	-39
17696	-1861	714	327	-57	-131	-39
17701	-1894	715	345	-57	-131	-39
17706	-1906	718	356	-113	68	36
17711	-1901	682	344	-113	68	36
17716	-1891	674	331	-113	68	36
17721	-1872	691	319	-113	68	36
17726	-1885	704	341	-113	68	36
17731	-1850	725	333	-113	68	36
17736	-1857	744	298	-92	159	-85
17741	-1868	735	284	-92	159	-85
17746	-1901	739	303	-92	159	-85
17751	-1913	728	263	-92	159	-85
17756	-1940	752	246	-92	159	-85
17761	-1942	737	221	-92	159	-85
17766	-1938	724	264	-28	-5	49
17771	-1887	681	301	-28	-5	49
17776	-1817	657	271	-28	-5	49
17781	-1868	658	274	-28	-5	49
17786	-1819	705	305	-28	-5	49
17791	-1870	716	325	-28	-5	49
17796	-1915	705	338	-62	200	-10
17801	-1927	747	292	-62	200	-10
17806	-1936	761	287	-62	200	-10
17811	-1929	698	257	-62	200	-10
17816	-1859	665	294	-62	200	-10
17821	-1885	667	321	-62	200	-10
17826	-1854	688	339	-62	200	-10
17831	-1851	697	310	-52	-35	6
17836	-1886	703	324	-52	-35	6
17841	-1910	720	285	-52	-35	6
17846	-1920	766	261	-52	-35	6
17851	-1960	804	186	-52	-35	6
17856	-1969	806	148	-52	-35	6
17861	-1949	768	161	-95	122	-102
17866	-1957	732	232	-95	122	-102
17871	-1904	690	249	-95	122	-102
17876	-1897	672	270	-95	122	-102
17881	-1872	648	324	-95	122	-102
17886	-1850	639	342	-95	122	-102
17891	-1864	656	318	-34	-34	77
17896	-1887	689	285	-34	-34	77
17901	-1869	691	246	-34	-34	77
17906	-1897	731	233	-34	-34	77
17911	-1919	730	211	-34	-34	77
17916	-1916	728	199	-34	-34	77
17921	-1922	710	227	-52	-40	-5
17926	-1906	711	242	-52	-40	-5
17931	-1916	702	267	-52	-40	-5
17936	-1898	695	293	-52	-40	-5
17941	-1857	711	269	-52	-40	-5
17946	-1889	710	243	-52	-40	-5
17951	-1907	700	251	-101	-51	-17
17956	-1896	712	239	-101	-51	-17
17961	-1926	714	248	-101	-51	-17
17966	-1927	728	270	-101	-51	-17
17971	-1922	698	255	-101	-51	-17
17976	-1896	694	271	-101	-51	-17
17981	-1892	676	292	-101	-51	-17
17986	-1854	694	303	-140	4	-68
17991	-1877	710	289	-140	4	-68
17996	-1881	720	295	-140	4	-68
18001	-1918	703	293	-140	4	-68
18006	-1914	702	248	-140	4	-68
18011	-1890	713	257	-140	4	-68
18016	-1878	701	265	-17	-21	-102
18021	-1903	710	276	-17	-21	-102
18026	-1900	700	273	-17	-21	-102
18031	-1880	718	256	-17	-21	-102
18036	-1900	692	284	-17	-21	-102
18041	-1929	688	281	-17	-21	-102
18046	-1925	678	258	-190	89	53
18051	-1934	720	244	-190	89	53
18056	-1968	712	212	-190	89	53
18061	-2004	682	270	-190	89	53
18066	-1902	680	240	-190	89	53
18071	-1868	666	316	-190	89	53
18076	-1840	655	327	-95	-64	-74
18081	-1784	730	311	-95	-64	-74
18086	-1896	689	282	-95	-64	-74
18091	-1851	740	254	-95	-64	-74
18096	-1931	725	245	-95	-64	-74
18101	-1938	727	176	-95	-64	-74
18106	-1982	725	228	-27	92	18
18111	-1943	694	262	-27	92	18
18116	-1868	701	261	-27	92	18
18121	-1886	615	344	-27	92	18
18126	-1838	620	355	-27	92	18
18131	-1879	649	346	-27	92	18
18136	-1868	637	322	-27	92	18
18141	-1883	667	333	-32	0	5
18146	-1912	708	246	-32	0	5
18151	-1928	763	268	-32	0	5
18156	-1955	761	269	-32	0	5
