time	accelerometer_x	accelerometer_y	accelerometer_z	gyroscope_x	gyroscope_y	gyroscope_z	
1	411	3856	-3181	315	483	-491
6	271	3741	-3097	1795	-664	-3767
11	64	3946	-2979	1795	-664	-3767
16	-99	4323	-2909	1795	-664	-3767
21	-137	4878	-2961	1795	-664	-3767
26	-64	5583	-3244	1795	-664	-3767
31	80	6296	-4197	1795	-664	-3767
36	135	6584	-5350	2639	-7369	-8102
41	325	6252	-6142	2639	-7369	-8102
46	568	5563	-6262	2639	-7369	-8102
51	1012	4972	-6010	2639	-7369	-8102
56	1186	4752	-5140	2639	-7369	-8102
61	1388	4091	-4230	2639	-7369	-8102
66	1584	3398	-3628	-6554	-6873	-11562
71	1813	2792	-3110	-6554	-6873	-11562
76	2035	2101	-2190	-6554	-6873	-11562
81	2114	1066	-1512	-6554	-6873	-11562
101	2156	-84	-108	-6554	-6873	-11562
101	2170	-84	-110	-6554	-6873	-11562
106	2154	-80	-101	-7301	-2828	-13066
111	2140	-85	-123	-7301	-2828	-13066
116	2131	-81	-135	-7301	-2828	-13066
121	2125	-73	-126	-7301	-2828	-13066
126	2121	-66	-150	-7125	3398	-12886
131	2108	-61	-146	-7125	3398	-12886
136	2110	-47	-139	-7125	3398	-12886
141	2097	-45	-155	-7125	3398	-12886
146	2094	-32	-173	-7125	3398	-12886
151	2095	-26	-157	-7125	3398	-12886
156	2085	-17	-164	-7125	3398	-12886
161	2087	-3	-168	-5792	8168	-10597
166	2095	-1	-176	-5792	8168	-10597
171	2089	18	-161	-5792	8168	-10597
176	2087	14	-146	-5792	8168	-10597
181	2093	19	-163	-5792	8168	-10597
186	2096	34	-158	-5792	8168	-10597
191	2105	36	-162	-4134	10969	-7593
196	2107	35	-152	-4134	10969	-7593
201	2106	39	-139	-4134	10969	-7593
206	2115	51	-140	-4134	10969	-7593
211	2116	46	-138	-4134	10969	-7593
216	2111	45	-134	-4134	10969	-7593
221	2119	47	-122	-2912	12280	-5216
226	2120	48	-126	-2912	12280	-5216
231	2122	43	-110	-2912	12280	-5216
236	2116	45	-112	-2912	12280	-5216
241	2119	41	-108	-2912	12280	-5216
246	2128	52	-95	-2912	12280	-5216
251	2122	51	-92	-2193	12839	-3049
256	2115	50	-85	-2193	12839	-3049
261	2113	45	-87	-2193	12839	-3049
266	2104	27	-75	-2193	12839	-3049
271	2109	32	-63	-2193	12839	-3049
276	2095	35	-68	-2193	12839	-3049
281	2088	18	-55	-231	-948	-661
286	1415	9061	20349	-231	-948	-661
291	-887	1297	1346	-231	-948	-661
296	-346	1278	295	-231	-948	-661
301	179	-49	712	-231	-948	-661
306	232	-152	1419	-231	-948	-661
311	-113	-331	1110	-231	-948	-661
316	-423	-462	762	-1238	-918	503
321	-1555	-472	2117	-1238	-918	503
326	-1405	-398	2994	-1238	-918	503
331	-853	-300	3020	-1238	-918	503
336	-788	247	3037	-1238	-918	503
341	-939	624	2886	-1238	-918	503
346	-979	571	2700	-2879	-106	273
351	-876	345	2372	-2879	-106	273
356	-913	229	2241	-2879	-106	273
361	-911	86	2151	-2879	-106	273
366	-806	-124	1796	-2879	-106	273
371	-717	-192	1427	-2879	-106	273
376	-553	-31	1001	-5535	-1559	-1176
381	-366	153	710	-5535	-1559	-1176
386	-303	266	659	-5535	-1559	-1176
391	-153	340	864	-5535	-1559	-1176
396	22	421	1133	-5535	-1559	-1176
401	91	500	1339	-5535	-1559	-1176
406	45	255	1512	-1628	-2355	-2441
411	87	-178	1587	-1628	-2355	-2441
416	234	-500	1536	-1628	-2355	-2441
421	357	-677	1410	-1628	-2355	-2441
426	459	-763	1317	-1628	-2355	-2441
431	564	-810	1253	-1628	-2355	-2441
436	571	-854	1219	-2226	-1608	-445
441	552	-1026	1246	-2226	-1608	-445
446	662	-1323	1417	-2226	-1608	-445
451	758	-1717	1489	-2226	-1608	-445
456	773	-1988	1570	-2226	-1608	-445
461	735	-1911	1514	-2226	-1608	-445
466	663	-1699	1489	-2226	-1608	-445
471	651	-1574	1535	-1196	-1109	-755
476	676	-1458	1596	-1196	-1109	-755
481	778	-1367	1662	-1196	-1109	-755
486	894	-1303	1777	-1196	-1109	-755
491	873	-1331	1884	-1196	-1109	-755
496	818	-1394	1947	-1196	-1109	-755
501	816	-1521	1983	-36	-413	-443
506	808	-1631	1897	-36	-413	-443
511	848	-1841	1781	-36	-413	-443
516	885	-2101	1755	-36	-413	-443
521	840	-2291	1796	-36	-413	-443
526	887	-2595	1913	-36	-413	-443
531	903	-2846	2156	771	1111	1668
536	793	-2990	2468	771	1111	1668
541	745	-3119	2664	771	1111	1668
546	710	-3366	2877	771	1111	1668
551	620	-3762	3121	771	1111	1668
556	588	-4209	3343	771	1111	1668
561	724	-4736	3531	1818	4551	6471
566	909	-5187	3807	1818	4551	6471
571	1175	-5653	4379	1818	4551	6471
576	1424	-6014	5297	1818	4551	6471
581	1599	-5862	6063	1818	4551	6471
586	1840	-5172	6290	1818	4551	6471
591	2011	-4227	5751	231	8874	9149
596	2134	-3241	4654	231	8874	9149
601	2583	-2619	3591	231	8874	9149
606	2774	-2262	3154	231	8874	9149
611	2770	-2213	3148	231	8874	9149
616	3113	-2334	2863	231	8874	9149
621	2792	-1506	2107	231	8874	9149
626	2433	-593	914	-342	9505	9300
631	2140	-15	-121	-342	9505	9300
636	2127	-31	-126	-342	9505	9300
641	2124	-30	-123	-342	9505	9300
646	2118	-29	-117	-342	9505	9300
651	2117	-36	-106	-342	9505	9300
656	2108	-29	-104	-1882	8714	9821
661	2116	-27	-94	-1882	8714	9821
666	2103	-25	-75	-1882	8714	9821
671	2099	-27	-106	-1882	8714	9821
676	2105	-23	-107	-1882	8714	9821
681	2097	-21	-96	-1882	8714	9821
686	2091	-26	-104	-3370	7018	11210
691	2096	-29	-98	-3370	7018	11210
696	2092	-20	-99	-3370	7018	11210
701	2080	-23	-91	-3370	7018	11210
706	2097	-23	-100	-3370	7018	11210
711	2087	-27	-97	-3370	7018	11210
716	2087	-17	-113	-4531	4148	12384
721	2088	-17	-92	-4531	4148	12384
726	2086	-25	-110	-4531	4148	12384
731	2079	-27	-105	-4531	4148	12384
736	2083	-14	-95	-4531	4148	12384
741	2084	-24	-86	-4531	4148	12384
746	2083	-15	-84	-4986	303	12992
751	2080	-25	-101	-4986	303	12992
756	2084	-23	-94	-4986	303	12992
761	2082	-25	-94	-4986	303	12992
766	2083	-31	-105	-4986	303	12992
771	2084	-35	-97	-4986	303	12992
776	2085	-32	-92	-4986	303	12992
781	2089	-31	-91	-4648	-3326	12277
786	2079	-39	-100	-4648	-3326	12277
791	4424	-237	-167	-4648	-3326	12277
796	2024	-32	-121	-4648	-3326	12277
801	2035	-45	-107	-4648	-3326	12277
806	2034	-44	-124	-4648	-3326	12277
811	2031	-40	-113	-23848	-5676	1616
816	2034	-43	-115	-23848	-5676	1616
821	2885	-2437	-1291	-23848	-5676	1616
826	6217	-12453	-2657	-23848	-5676	1616
831	3174	-5057	-3165	-23848	-5676	1616
836	1653	-1466	-1393	-23848	-5676	1616
841	1157	-1034	-616	-3087	754	1092
846	-156	-340	-971	-3087	754	1092
851	312	-248	-936	-3087	754	1092
856	-971	-196	-1005	-3087	754	1092
861	-1984	210	-747	-3087	754	1092
866	-1360	-396	1070	-3087	754	1092
871	-433	-777	1591	-2688	1779	1427
876	-509	-568	100	-2688	1779	1427
881	229	-852	-1390	-2688	1779	1427
886	473	-1304	-2601	-2688	1779	1427
891	407	-1643	-3830	-2688	1779	1427
896	399	-1539	-4627	-2688	1779	1427
901	232	-946	-4733	-2950	-397	483
906	26	-419	-4323	-2950	-397	483
911	-223	150	-3561	-2950	-397	483
916	-319	525	-2756	-2950	-397	483
921	-293	578	-2150	-2950	-397	483
926	-154	590	-1759	-2950	-397	483
931	-20	576	-1588	-2950	-397	483
936	5	466	-1392	-1730	1007	90
941	-46	326	-1309	-1730	1007	90
946	-100	220	-1381	-1730	1007	90
951	-158	196	-1487	-1730	1007	90
956	-219	197	-1556	-1730	1007	90
961	-165	213	-1543	-1730	1007	90
966	-74	234	-1495	-2145	2639	912
971	182	180	-1444	-2145	2639	912
976	335	107	-1483	-2145	2639	912
981	434	-63	-1630	-2145	2639	912
986	378	-165	-1894	-2145	2639	912
991	278	-147	-2184	-2145	2639	912
996	324	-43	-2441	-224	1588	683
1001	465	116	-2640	-224	1588	683
1006	550	398	-2748	-224	1588	683
1011	667	659	-2703	-224	1588	683
1016	570	811	-2435	-224	1588	683
1021	608	888	-2119	-224	1588	683
1026	758	951	-1776	557	2749	-197
1031	790	1002	-1682	557	2749	-197
1036	804	1097	-1775	557	2749	-197
1041	860	1166	-1965	557	2749	-197
1046	914	952	-2263	557	2749	-197
1051	982	782	-2551	557	2749	-197
1056	1196	735	-2868	-6	-800	-414
1061	1420	782	-3344	-6	-800	-414
1066	1432	824	-3901	-6	-800	-414
1071	1133	893	-4513	-6	-800	-414
1076	995	1015	-4947	-6	-800	-414
1081	1065	1213	-5284	-6	-800	-414
1086	1112	1331	-5476	-6	-800	-414
1091	1084	1510	-5723	1067	-4025	-2024
1096	1161	1808	-5743	1067	-4025	-2024
1101	1244	2169	-5752	1067	-4025	-2024
1106	1311	2300	-6168	1067	-4025	-2024
1111	1474	2035	-6947	1067	-4025	-2024
1116	1608	1546	-8163	1067	-4025	-2024
1121	1871	1074	-9253	-3277	-12353	-2011
1126	2319	590	-9572	-3277	-12353	-2011
1131	2849	354	-9065	-3277	-12353	-2011
1136	3555	297	-7521	-3277	-12353	-2011
1141	3938	384	-5533	-3277	-12353	-2011
1146	4238	549	-4264	-3277	-12353	-2011
1151	3967	432	-3033	-5580	-13499	-6323
1156	3765	345	-1815	-5580	-13499	-6323
1161	4143	258	-563	-5580	-13499	-6323
1166	3236	-80	95	-5580	-13499	-6323
1171	3092	-47	40	-5580	-13499	-6323
1176	3046	25	184	-5580	-13499	-6323
1181	2687	-83	-12	-7563	-9761	-10943
1186	2653	-95	-59	-7563	-9761	-10943
1191	2643	-105	-85	-7563	-9761	-10943
1196	2632	-101	-75	-7563	-9761	-10943
1201	2620	-109	-101	-7563	-9761	-10943
1206	2615	-112	-92	-7563	-9761	-10943
1211	2595	-117	-80	-8978	-2754	-14227
1216	2593	-116	-100	-8978	-2754	-14227
1221	2571	-112	-116	-8978	-2754	-14227
1226	2562	-117	-119	-8978	-2754	-14227
1231	2541	-110	-131	-8978	-2754	-14227
1236	2523	-88	-139	-8978	-2754	-14227
1241	2514	-93	-162	-8978	-2754	-14227
1246	2509	-84	-158	-8562	5078	-13663
1251	2502	-63	-146	-8562	5078	-13663
1256	2484	-50	-149	-8562	5078	-13663
1261	2486	-32	-168	-8562	5078	-13663
1266	2478	-25	-163	-8562	5078	-13663
1271	2472	-6	-167	-8562	5078	-13663
1276	2482	16	-172	-6725	10786	-9805
1281	2481	20	-164	-6725	10786	-9805
1286	2490	34	-164	-6725	10786	-9805
1291	2488	42	-156	-6725	10786	-9805
1296	2490	57	-143	-6725	10786	-9805
1301	2502	60	-140	-6725	10786	-9805
1306	2501	62	-129	-5217	13586	-5531
1311	2505	67	-113	-5217	13586	-5531
1316	2510	71	-127	-5217	13586	-5531
1321	2515	73	-99	-5217	13586	-5531
1326	2520	76	-94	-5217	13586	-5531
1331	2522	68	-85	-5217	13586	-5531
1336	2520	68	-95	-10699	895	-319
1341	2509	54	-64	-10699	895	-319
1346	2504	59	-52	-10699	895	-319
1351	2498	47	-59	-10699	895	-319
1356	1593	2253	10199	-10699	895	-319
1361	-5185	3671	2425	-10699	895	-319
1366	-1133	-545	-249	8082	-4321	-1208
1371	-317	-199	522	8082	-4321	-1208
1376	-2780	436	-1541	8082	-4321	-1208
1381	-1430	-1020	490	8082	-4321	-1208
1386	-649	-388	491	8082	-4321	-1208
1391	-45	-846	504	8082	-4321	-1208
1396	463	-1203	1353	8082	-4321	-1208
1401	246	-966	2308	-4242	472	-155
1406	153	-23	3210	-4242	472	-155
1411	153	1335	4299	-4242	472	-155
1416	-41	1383	4585	-4242	472	-155
1421	34	631	4039	-4242	472	-155
1426	-81	43	3170	-4242	472	-155
1431	-394	-528	2163	-987	-1317	-127
1436	-451	-794	1480	-987	-1317	-127
1441	-417	-752	1044	-987	-1317	-127
1446	-370	-664	845	-987	-1317	-127
1451	-229	-527	847	-987	-1317	-127
1456	-187	-368	953	-987	-1317	-127
1461	-139	-172	1054	-4970	-764	-563
1466	-153	-137	1130	-4970	-764	-563
1471	-229	-190	1201	-4970	-764	-563
1476	-212	-215	1352	-4970	-764	-563
1481	-103	-423	1545	-4970	-764	-563
1486	-71	-604	1622	-4970	-764	-563
1491	-15	-534	1409	-2483	-2058	-2059
1496	185	-402	1132	-2483	-2058	-2059
1501	367	-327	926	-2483	-2058	-2059
1506	648	-246	824	-2483	-2058	-2059
1511	840	-188	812	-2483	-2058	-2059
1516	978	-266	924	-2483	-2058	-2059
1521	1032	-499	1135	-1789	-1272	-3755
1526	951	-757	1310	-1789	-1272	-3755
1531	838	-923	1398	-1789	-1272	-3755
1536	833	-1070	1493	-1789	-1272	-3755
1541	884	-1180	1502	-1789	-1272	-3755
1546	1035	-1222	1413	-1789	-1272	-3755
1551	1175	-1386	1372	-1789	-1272	-3755
1556	1277	-1596	1341	390	-1200	-1168
1561	1442	-1830	1301	390	-1200	-1168
1566	1668	-2247	1325	390	-1200	-1168
1571	1902	-2901	1419	390	-1200	-1168
1576	2073	-3196	1619	390	-1200	-1168
1581	1462	-2851	1972	390	-1200	-1168
1586	967	-2582	1938	-120	-851	-308
1591	994	-2342	1672	-120	-851	-308
1596	1128	-2247	1491	-120	-851	-308
1601	1126	-2293	1525	-120	-851	-308
1606	1125	-2518	1761	-120	-851	-308
1611	1171	-2727	2081	-120	-851	-308
1616	1141	-2931	2403	49	168	1874
1621	1151	-3139	2562	49	168	1874
1626	1210	-3390	2571	49	168	1874
1631	1264	-3697	2423	49	168	1874
1636	1303	-4112	2435	49	168	1874
1641	1509	-4560	2841	49	168	1874
1646	1553	-4736	3348	1856	2496	4905
1651	1651	-4928	3819	1856	2496	4905
1656	1777	-5089	3958	1856	2496	4905
1661	1970	-5265	3990	1856	2496	4905
1666	2129	-5235	3872	1856	2496	4905
1671	2394	-5176	3806	1856	2496	4905
1676	2530	-5324	4029	-1609	7785	9837
1681	2741	-5549	4334	-1609	7785	9837
1686	3061	-5498	4514	-1609	7785	9837
1691	3390	-5347	4571	-1609	7785	9837
1696	3894	-4777	4342	-1609	7785	9837
1701	4051	-3732	3735	-1609	7785	9837
1706	4553	-2715	2563	-1609	7785	9837
1711	4510	-2117	1786	-4818	6814	13342
1716	4532	-1478	840	-4818	6814	13342
1721	3308	-526	139	-4818	6814	13342
1726	2741	-20	-107	-4818	6814	13342
1731	2720	-20	-93	-4818	6814	13342
1736	2719	-30	-87	-4818	6814	13342
1741	2715	-34	-67	-5818	2067	14589
1746	2711	-39	-62	-5818	2067	14589
1751	2714	-28	-72	-5818	2067	14589
1756	2714	-42	-70	-5818	2067	14589
1761	2718	-45	-84	-5818	2067	14589
1766	2723	-48	-73	-5818	2067	14589
1771	2722	-46	-90	-5542	-3192	14544
1776	2717	-50	-93	-5542	-3192	14544
1781	2732	-42	-91	-5542	-3192	14544
1786	2726	-38	-86	-5542	-3192	14544
1791	2731	-33	-96	-5542	-3192	14544
1796	2729	-33	-80	-5542	-3192	14544
1801	2730	-40	-86	-4137	-7273	12941
1806	2726	-26	-95	-4137	-7273	12941
1811	2733	-20	-97	-4137	-7273	12941
1816	2737	-30	-92	-4137	-7273	12941
1821	2725	-29	-106	-4137	-7273	12941
1826	2732	-23	-109	-4137	-7273	12941
1831	2733	-21	-108	-2151	-9580	11371
1836	2722	-16	-110	-2151	-9580	11371
1841	2728	-13	-113	-2151	-9580	11371
1846	2727	-18	-100	-2151	-9580	11371
1851	2725	-15	-97	-2151	-9580	11371
1856	2718	-14	-110	-2151	-9580	11371
1861	2709	-6	-116	-2151	-9580	11371
1866	2710	-12	-119	-285	-10176	10722
1871	2710	-10	-127	-285	-10176	10722
1876	2694	-11	-133	-285	-10176	10722
1881	2693	3	-120	-285	-10176	10722
1886	2686	3	-137	-285	-10176	10722
1891	2673	6	-132	-285	-10176	10722
1896	2660	12	-128	1498	-9511	11136
1901	2658	13	-132	1498	-9511	11136
1906	2642	15	-149	1498	-9511	11136
1911	2629	18	-150	1498	-9511	11136
1916	2624	13	-149	1498	-9511	11136
1921	2618	20	-148	1498	-9511	11136
1926	2600	21	-140	-5736	12773	-2362
1931	2593	13	-143	-5736	12773	-2362
1936	-9063	6151	5146	-5736	12773	-2362
1941	-586	-214	-1142	-5736	12773	-2362
1946	-720	379	137	-5736	12773	-2362
1951	-800	-78	-673	-5736	12773	-2362
1956	-763	-5297	-4627	-5310	-357	3815
1961	1004	-3412	-1578	-5310	-357	3815
1966	-323	-6067	-5238	-5310	-357	3815
1971	1125	-3613	-6088	-5310	-357	3815
1976	2103	-1307	-6509	-5310	-357	3815
1981	206	1133	-6428	-5310	-357	3815
1986	-1122	3339	-5401	-2066	3195	-2065
1991	-1766	4331	-3613	-2066	3195	-2065
1996	-1909	3973	-1999	-2066	3195	-2065
2001	-1835	3014	-160	-2066	3195	-2065
2006	-1530	1671	780	-2066	3195	-2065
2011	-1442	543	385	-2066	3195	-2065
2016	-1281	-58	-209	-2066	3195	-2065
2021	-924	-277	-1105	-5032	915	280
2026	-605	-267	-2099	-5032	915	280
2031	-429	-279	-2853	-5032	915	280
2036	-285	-282	-3371	-5032	915	280
2041	-297	-75	-3530	-5032	915	280
2046	-269	172	-3335	-5032	915	280
2051	-96	155	-2877	-4106	1074	2120
2056	177	22	-2308	-4106	1074	2120
2061	315	-57	-1900	-4106	1074	2120
2066	181	79	-1631	-4106	1074	2120
2071	38	318	-1433	-4106	1074	2120
2076	-9	655	-1342	-4106	1074	2120
2081	121	983	-1457	-2535	1897	2000
2086	325	1209	-1473	-2535	1897	2000
2091	619	1415	-1437	-2535	1897	2000
2096	979	1617	-1464	-2535	1897	2000
2101	1261	1778	-1412	-2535	1897	2000
2106	1410	1761	-1460	-2535	1897	2000
2111	1463	1659	-1575	-1449	970	1726
2116	1508	1519	-1634	-1449	970	1726
2121	1318	1537	-1738	-1449	970	1726
2126	1023	1496	-1953	-1449	970	1726
2131	1154	1881	-1961	-1449	970	1726
2136	1475	2342	-1805	-1449	970	1726
2141	1647	2712	-1679	-1189	324	657
2146	1757	2990	-1774	-1189	324	657
2151	1875	3098	-2009	-1189	324	657
2156	1910	2990	-2396	-1189	324	657
2161	1857	2917	-2744	-1189	324	657
2166	1828	2961	-2928	-1189	324	657
2171	1961	3127	-2868	-1189	324	657
2176	2045	3300	-2693	1028	-256	-721
2181	2111	3652	-2374	1028	-256	-721
2186	2247	3847	-2051	1028	-256	-721
2191	2278	3696	-1799	1028	-256	-721
2196	2221	3270	-1645	1028	-256	-721
2201	2049	2827	-1708	1028	-256	-721
2206	1907	2494	-1921	56	-1186	-582
2211	1821	2298	-2002	56	-1186	-582
2216	1718	2169	-1933	56	-1186	-582
2221	1656	2061	-1746	56	-1186	-582
2226	1556	1958	-1500	56	-1186	-582
2231	1565	1860	-1248	56	-1186	-582
2236	1498	1865	-969	-41	-417	-1057
2241	1375	1867	-800	-41	-417	-1057
2246	1386	1970	-706	-41	-417	-1057
2251	1358	2032	-733	-41	-417	-1057
2256	1172	2014	-916	-41	-417	-1057
2261	1042	1926	-1111	-41	-417	-1057
2266	957	1798	-1221	-871	-1065	-1700
2271	869	1614	-1270	-871	-1065	-1700
2276	764	1438	-1274	-871	-1065	-1700
2281	670	1272	-1194	-871	-1065	-1700
2286	600	1097	-1070	-871	-1065	-1700
2291	541	942	-950	-871	-1065	-1700
2296	486	810	-846	-380	-584	-995
2301	384	703	-759	-380	-584	-995
2306	409	609	-712	-380	-584	-995
2311	375	559	-636	-380	-584	-995
2316	354	546	-582	-380	-584	-995
2321	333	578	-571	-380	-584	-995
2326	300	632	-604	-380	-584	-995
2331	225	691	-573	-594	-122	-1404
2336	217	694	-494	-594	-122	-1404
2341	245	695	-439	-594	-122	-1404
2346	254	678	-448	-594	-122	-1404
2351	306	638	-520	-594	-122	-1404
2356	336	571	-618	-594	-122	-1404
2361	335	498	-679	151	129	-632
2366	345	399	-712	151	129	-632
2371	370	281	-641	151	129	-632
2376	401	228	-588	151	129	-632
2381	392	238	-537	151	129	-632
2386	387	290	-513	151	129	-632
2391	373	365	-489	-770	272	-856
2396	381	422	-490	-770	272	-856
2401	409	444	-601	-770	272	-856
2406	491	490	-793	-770	272	-856
2411	594	601	-869	-770	272	-856
2416	698	676	-792	-770	272	-856
2421	805	714	-685	680	830	831
2426	861	738	-630	680	830	831
2431	950	809	-638	680	830	831
2436	1030	946	-724	680	830	831
2441	1040	1153	-891	680	830	831
2446	1033	1336	-1107	680	830	831
2451	1025	1520	-1357	173	174	784
2456	989	1642	-1584	173	174	784
2461	978	1749	-1639	173	174	784
2466	861	1911	-1448	173	174	784
2471	778	2067	-1244	173	174	784
2476	690	2264	-1126	173	174	784
2481	581	2396	-1084	173	174	784
2486	487	2465	-1106	-82	378	24
2491	429	2477	-1138	-82	378	24
2496	404	2421	-1162	-82	378	24
2501	402	2379	-1279	-82	378	24
2506	451	2342	-1414	-82	378	24
2511	510	2286	-1545	-82	378	24
2516	566	2264	-1635	-218	-102	-52
2521	598	2309	-1712	-218	-102	-52
2526	603	2368	-1696	-218	-102	-52
2531	643	2416	-1668	-218	-102	-52
2536	576	2322	-1655	-218	-102	-52
2541	676	2294	-1640	-218	-102	-52
2546	633	2266	-1629	-423	-585	-455
2551	679	2249	-1613	-423	-585	-455
2556	736	2257	-1590	-423	-585	-455
2561	709	2240	-1576	-423	-585	-455
2566	700	2208	-1454	-423	-585	-455
2571	694	2132	-1317	-423	-585	-455
2576	695	2096	-1191	-681	-256	-61
2581	674	2072	-1153	-681	-256	-61
2586	621	2046	-1136	-681	-256	-61
2591	563	2019	-1167	-681	-256	-61
2596	525	1966	-1153	-681	-256	-61
2601	501	1907	-1161	-681	-256	-61
2606	526	1840	-1131	-335	-55	251
2611	501	1803	-1051	-335	-55	251
2616	588	1770	-980	-335	-55	251
2621	662	1665	-980	-335	-55	251
2626	684	1605	-972	-335	-55	251
2631	609	1545	-973	-335	-55	251
2636	501	1429	-1001	-335	-55	251
2641	397	1299	-990	-1959	-263	1835
2646	321	1210	-937	-1959	-263	1835
2651	276	1101	-898	-1959	-263	1835
2656	240	997	-824	-1959	-263	1835
2661	40	1092	-628	-1959	-263	1835
2666	14	1178	-528	-1959	-263	1835
2671	83	1295	-393	-348	64	1814
2676	324	1371	-307	-348	64	1814
2681	667	1412	-168	-348	64	1814
2686	1100	1516	-99	-348	64	1814
2691	1419	1665	-57	-348	64	1814
2696	1397	1745	8	-348	64	1814
2701	795	1578	-12	531	823	2488
2706	455	1110	-127	531	823	2488
2711	684	789	-214	531	823	2488
2716	814	804	-302	531	823	2488
2721	869	924	-412	531	823	2488
2726	998	1105	-492	531	823	2488
2731	1112	1287	-588	1589	1080	2365
2736	1175	1467	-661	1589	1080	2365
2741	1211	1669	-711	1589	1080	2365
2746	1252	1960	-769	1589	1080	2365
2751	1206	2285	-858	1589	1080	2365
2756	1181	2511	-915	1589	1080	2365
2761	1150	2678	-982	1627	1060	456
2766	1085	2760	-1037	1627	1060	456
2771	1191	2848	-1077	1627	1060	456
2776	1245	3048	-1121	1627	1060	456
2781	1265	3339	-1212	1627	1060	456
2786	1373	3652	-1353	1627	1060	456
2791	1443	3893	-1656	1627	1060	456
2796	1413	4029	-1997	1005	-414	-2371
2801	1422	4269	-2299	1005	-414	-2371
2806	1516	4629	-2548	1005	-414	-2371
2811	1576	4928	-2706	1005	-414	-2371
2816	1688	5201	-2970	1005	-414	-2371
2821	1864	5418	-3318	1005	-414	-2371
2826	1985	5580	-3659	1772	-3688	-5722
2831	2105	5710	-3843	1772	-3688	-5722
2836	2397	5734	-3813	1772	-3688	-5722
2841	2654	5861	-3943	1772	-3688	-5722
2846	2896	6184	-4053	1772	-3688	-5722
2851	3178	6310	-4197	1772	-3688	-5722
2856	3410	6216	-4251	1520	-7682	-9121
2861	3738	5795	-4053	1520	-7682	-9121
2866	4059	4999	-3562	1520	-7682	-9121
2871	4067	3755	-2875	1520	-7682	-9121
2876	4313	2881	-2107	1520	-7682	-9121
2881	4051	2143	-1597	1520	-7682	-9121
2886	3790	1446	-1053	331	-9003	-10047
2891	3671	797	-535	331	-9003	-10047
2896	2460	-49	-98	331	-9003	-10047
2901	2193	-60	-61	331	-9003	-10047
2906	2188	-50	-69	331	-9003	-10047
2911	2187	-54	-69	331	-9003	-10047
2916	2183	-48	-70	-1391	-8606	-10275
2921	2182	-47	-98	-1391	-8606	-10275
2926	2182	-55	-87	-1391	-8606	-10275
2931	2180	-51	-90	-1391	-8606	-10275
2936	2176	-61	-97	-1391	-8606	-10275
2941	2159	-57	-102	-1391	-8606	-10275
2946	2177	-54	-106	-1391	-8606	-10275
2951	2161	-55	-95	-2925	-7176	-11317
2956	2160	-51	-107	-2925	-7176	-11317
2961	2161	-64	-110	-2925	-7176	-11317
2966	2159	-62	-111	-2925	-7176	-11317
2971	2149	-68	-106	-2925	-7176	-11317
2976	2150	-71	-98	-2925	-7176	-11317
2981	2141	-67	-111	-4141	-4477	-12520
2986	2141	-65	-101	-4141	-4477	-12520
2991	2127	-68	-120	-4141	-4477	-12520
2996	2129	-68	-113	-4141	-4477	-12520
3001	2131	-67	-136	-4141	-4477	-12520
3006	2117	-67	-122	-4141	-4477	-12520
3011	2126	-71	-126	-4697	-835	-13209
3016	2115	-72	-128	-4697	-835	-13209
3021	2105	-55	-128	-4697	-835	-13209
3026	2107	-57	-146	-4697	-835	-13209
3031	2101	-49	-152	-4697	-835	-13209
3036	2099	-41	-159	-4697	-835	-13209
3041	2100	-37	-145	-4283	2951	-12921
3046	2086	-30	-162	-4283	2951	-12921
3051	2089	-21	-152	-4283	2951	-12921
3056	2093	-18	-157	-4283	2951	-12921
3061	2086	-10	-142	-4283	2951	-12921
3066	2078	4	-158	-4283	2951	-12921
3071	2080	1	-146	-3245	5988	-11626
3076	2094	4	-134	-3245	5988	-11626
3081	2083	8	-146	-3245	5988	-11626
3086	2082	15	-145	-3245	5988	-11626
3091	2079	24	-150	-3245	5988	-11626
3096	2080	24	-131	-3245	5988	-11626
3101	2074	30	-146	-3245	5988	-11626
3106	2077	26	-122	-27109	-4075	3358
3111	2068	22	-139	-27109	-4075	3358
3116	2066	34	-116	-27109	-4075	3358
3121	-8233	12500	6029	-27109	-4075	3358
3126	-2262	-329	475	-27109	-4075	3358
3131	1101	-544	634	-27109	-4075	3358
3136	-491	-59	2346	7658	-552	-1741
3141	-262	-382	2583	7658	-552	-1741
3146	-1949	-189	1238	7658	-552	-1741
3151	-2006	430	1944	7658	-552	-1741
3156	-1255	-422	2366	7658	-552	-1741
3161	192	-95	2311	7658	-552	-1741
3166	-408	-395	404	-5125	-1320	389
3171	-141	-1243	1041	-5125	-1320	389
3176	1035	679	2624	-5125	-1320	389
3181	629	1701	2891	-5125	-1320	389
3186	724	1295	3356	-5125	-1320	389
3191	638	926	4204	-5125	-1320	389
3196	333	445	4369	-2073	-1326	-680
3201	288	162	3726	-2073	-1326	-680
3206	254	150	3010	-2073	-1326	-680
3211	140	225	2356	-2073	-1326	-680
3216	247	260	1860	-2073	-1326	-680
3221	321	265	1598	-2073	-1326	-680
3226	498	289	1504	-1713	-3078	-2330
3231	441	121	1482	-1713	-3078	-2330
3236	382	-62	1521	-1713	-3078	-2330
3241	396	-253	1614	-1713	-3078	-2330
3246	447	-392	1713	-1713	-3078	-2330
3251	646	-564	1901	-1713	-3078	-2330
3256	739	-712	2082	-1713	-3078	-2330
3261	883	-830	2276	-400	-946	-808
3266	1022	-1018	2472	-400	-946	-808
3271	1143	-1321	2811	-400	-946	-808
3276	1176	-1733	3062	-400	-946	-808
3281	1080	-1977	3172	-400	-946	-808
3286	946	-2015	3076	-400	-946	-808
3291	793	-1673	2791	128	-330	465
3296	785	-1423	2337	128	-330	465
3301	868	-1272	2043	128	-330	465
3306	937	-1135	1952	128	-330	465
3311	950	-955	1980	128	-330	465
3316	1025	-713	2079	128	-330	465
3321	1040	-456	2220	-516	712	339
3326	1003	-466	2401	-516	712	339
3331	1011	-697	2566	-516	712	339
3336	1050	-1141	2803	-516	712	339
3341	977	-1776	3297	-516	712	339
3346	974	-2428	4099	-516	712	339
3351	977	-2829	4681	1257	3905	2784
3356	811	-2884	4780	1257	3905	2784
3361	1013	-3001	4817	1257	3905	2784
3366	1260	-3142	4965	1257	3905	2784
3371	1397	-3277	5464	1257	3905	2784
3376	1453	-3435	6362	1257	3905	2784
3381	1558	-3488	7507	-1281	10867	4022
3386	1873	-3239	8068	-1281	10867	4022
3391	2249	-2807	7780	-1281	10867	4022
3396	2640	-2345	6847	-1281	10867	4022
3401	2957	-2019	5654	-1281	10867	4022
3406	3176	-1702	4218	-1281	10867	4022
3411	3191	-1480	2808	-1281	10867	4022
3416	2362	-875	1742	-1820	11735	5511
3421	2350	-504	904	-1820	11735	5511
3426	2335	-106	249	-1820	11735	5511
3431	2011	6	-126	-1820	11735	5511
3436	2005	2	-131	-1820	11735	5511
3441	1994	6	-107	-1820	11735	5511
3446	2005	-2	-97	-3148	10709	7266
3451	1995	6	-84	-3148	10709	7266
3456	1993	4	-87	-3148	10709	7266
3461	1989	-2	-90	-3148	10709	7266
3466	1988	3	-90	-3148	10709	7266
3471	1980	-4	-94	-3148	10709	7266
3476	1983	-10	-84	-4616	8638	9382
3481	1981	-6	-89	-4616	8638	9382
3486	1977	4	-80	-4616	8638	9382
3491	1975	-8	-85	-4616	8638	9382
3496	1965	-13	-86	-4616	8638	9382
3501	1970	1	-72	-4616	8638	9382
3506	1959	-9	-82	-5933	5119	11614
3511	1964	-8	-85	-5933	5119	11614
3516	1958	-10	-92	-5933	5119	11614
3521	1954	-13	-88	-5933	5119	11614
3526	1958	-21	-93	-5933	5119	11614
3531	1950	-13	-88	-5933	5119	11614
3536	1961	-15	-90	-6469	213	12669
3541	1958	-25	-106	-6469	213	12669
3546	1960	-27	-98	-6469	213	12669
3551	1957	-28	-79	-6469	213	12669
3556	1969	-27	-86	-6469	213	12669
3561	1967	-21	-76	-6469	213	12669
3566	1972	-29	-85	-6469	213	12669
3571	1973	-33	-101	-5961	-4428	11780
3576	1963	-35	-92	-5961	-4428	11780
3581	1978	-28	-79	-5961	-4428	11780
3586	1981	-28	-101	-5961	-4428	11780
3591	1985	-31	-102	-5961	-4428	11780
3596	1986	-42	-102	-5961	-4428	11780
3601	1990	-39	-104	-4935	-7943	9767
3606	1980	-40	-116	-4935	-7943	9767
3611	1982	-40	-124	-4935	-7943	9767
3616	1986	-40	-125	-4935	-7943	9767
3621	1977	-37	-133	-4935	-7943	9767
3626	1987	-29	-131	-4935	-7943	9767
3631	2021	-126	-138	-8740	393	663
3636	1732	90	97	-8740	393	663
3641	1512	-8054	-6804	-8740	393	663
3646	-361	-1024	-1445	-8740	393	663
3651	-466	-735	-2154	-8740	393	663
3656	355	-425	-1153	-8740	393	663
3661	-721	-673	-2119	-234	1766	-1083
3666	-2022	84	-2667	-234	1766	-1083
3671	-456	1060	-2365	-234	1766	-1083
3676	823	791	-1638	-234	1766	-1083
3681	212	-90	-2048	-234	1766	-1083
3686	142	-703	-2553	-234	1766	-1083
3691	513	-864	-2881	-1966	-475	-244
3696	544	-913	-3108	-1966	-475	-244
3701	516	-1138	-3445	-1966	-475	-244
3706	410	-1331	-3714	-1966	-475	-244
3711	288	-1315	-3801	-1966	-475	-244
3716	220	-1232	-3615	-1966	-475	-244
3721	203	-1170	-3137	-1966	-475	-244
3726	90	-1079	-2450	-2003	1680	513
3731	32	-863	-1691	-2003	1680	513
3736	144	-540	-841	-2003	1680	513
3741	269	-271	-297	-2003	1680	513
3746	345	-98	-125	-2003	1680	513
3751	559	12	-240	-2003	1680	513
3756	781	-15	-647	-1455	2167	795
3761	872	-150	-1126	-1455	2167	795
3766	821	-266	-1565	-1455	2167	795
3771	667	-287	-1917	-1455	2167	795
3776	557	-211	-2196	-1455	2167	795
3781	471	-120	-2407	-1455	2167	795
3786	512	-10	-2359	-437	2425	1168
3791	606	68	-2006	-437	2425	1168
3796	794	179	-1730	-437	2425	1168
3801	829	311	-1641	-437	2425	1168
3806	732	387	-1696	-437	2425	1168
3811	781	550	-1959	-437	2425	1168
3816	833	731	-2272	2763	2321	-440
3821	998	812	-2354	2763	2321	-440
3826	1173	887	-2313	2763	2321	-440
3831	1295	993	-2534	2763	2321	-440
3836	1339	1016	-3058	2763	2321	-440
3841	1311	874	-3674	2763	2321	-440
3846	1292	598	-4248	-500	-384	-89
3851	1273	280	-4599	-500	-384	-89
3856	1285	-17	-4573	-500	-384	-89
3861	1270	-312	-4358	-500	-384	-89
3866	1456	-324	-4308	-500	-384	-89
3871	1536	-246	-4495	-500	-384	-89
3876	1437	-211	-4990	-500	-384	-89
3881	1543	-79	-5785	927	-4576	-160
3886	1636	29	-6410	927	-4576	-160
3891	1751	228	-6827	927	-4576	-160
3896	2043	569	-7371	927	-4576	-160
3901	2229	620	-7531	927	-4576	-160
3906	2538	350	-7312	927	-4576	-160
3911	2670	-23	-7332	917	-10011	1731
3916	2732	-469	-7385	917	-10011	1731
3921	2840	-878	-7334	917	-10011	1731
3926	3083	-1215	-7058	917	-10011	1731
3931	3511	-1314	-6361	917	-10011	1731
3936	3880	-1039	-5530	917	-10011	1731
3941	4162	-441	-4183	-4072	-14117	427
3946	4584	130	-3047	-4072	-14117	427
3951	4010	-34	-2217	-4072	-14117	427
3956	3205	-234	-1127	-4072	-14117	427
3961	2625	-106	-292	-4072	-14117	427
3966	2454	-34	-23	-4072	-14117	427
3971	2444	-46	-34	-4473	-13759	-3118
3976	2443	-43	-39	-4473	-13759	-3118
3981	2434	-50	-56	-4473	-13759	-3118
3986	2429	-49	-67	-4473	-13759	-3118
3991	2435	-58	-75	-4473	-13759	-3118
3996	2425	-55	-67	-4473	-13759	-3118
4001	2420	-55	-74	-5710	-12092	-7054
4006	2417	-67	-65	-5710	-12092	-7054
4011	2402	-72	-71	-5710	-12092	-7054
4016	2408	-71	-76	-5710	-12092	-7054
4021	2401	-77	-73	-5710	-12092	-7054
4026	2388	-81	-90	-5710	-12092	-7054
4031	2377	-85	-74	-5710	-12092	-7054
4036	2365	-93	-74	-7421	-8403	-11084
4041	2372	-96	-89	-7421	-8403	-11084
4046	2351	-101	-89	-7421	-8403	-11084
4051	2337	-91	-98	-7421	-8403	-11084
4056	2337	-104	-98	-7421	-8403	-11084
4061	2319	-100	-111	-7421	-8403	-11084
4066	2307	-107	-123	-8554	-1992	-13615
4071	2301	-106	-118	-8554	-1992	-13615
4076	2292	-97	-129	-8554	-1992	-13615
4081	2269	-82	-131	-8554	-1992	-13615
4086	2265	-85	-131	-8554	-1992	-13615
4091	2247	-63	-151	-8554	-1992	-13615
4096	2238	-62	-164	-7992	5097	-12761
4101	2237	-51	-156	-7992	5097	-12761
4106	2223	-22	-167	-7992	5097	-12761
4111	2220	-11	-154	-7992	5097	-12761
4116	2215	-5	-161	-7992	5097	-12761
4121	2213	17	-162	-7992	5097	-12761
4126	2218	17	-158	-6449	10145	-9317
4131	2219	30	-151	-6449	10145	-9317
4136	2216	42	-144	-6449	10145	-9317
4141	2215	52	-133	-6449	10145	-9317
4146	2215	59	-124	-6449	10145	-9317
4151	2223	55	-127	-6449	10145	-9317
4156	2219	55	-102	-19500	5	-866
4161	2226	59	-87	-19500	5	-866
4166	2213	62	-86	-19500	5	-866
4171	342	16963	21037	-19500	5	-866
4176	-1402	1334	2965	-19500	5	-866
4181	-98	-368	253	-19500	5	-866
4186	-15	427	-578	-19500	5	-866
4191	-282	-527	2178	1287	-3262	-742
4196	-800	-456	1119	1287	-3262	-742
4201	-1264	-728	62	1287	-3262	-742
4206	-1213	-925	-237	1287	-3262	-742
4211	-957	-2013	210	1287	-3262	-742
4216	-707	-1742	1324	1287	-3262	-742
4221	-753	-878	2078	-4414	-557	122
4226	-924	-284	2445	-4414	-557	122
4231	-983	-408	2411	-4414	-557	122
4236	-950	-941	2009	-4414	-557	122
4241	-1055	-1178	1572	-4414	-557	122
4246	-1156	-1122	1188	-4414	-557	122
4251	-1116	-922	809	-1545	-2831	-2525
4256	-976	-622	341	-1545	-2831	-2525
4261	-705	-259	-175	-1545	-2831	-2525
4266	-373	54	-474	-1545	-2831	-2525
4271	-64	-54	-209	-1545	-2831	-2525
4276	148	-434	563	-1545	-2831	-2525
4281	342	-774	1473	-5019	-451	-3582
4286	300	-1088	2073	-5019	-451	-3582
4291	99	-1254	2398	-5019	-451	-3582
4296	253	-1441	2364	-5019	-451	-3582
4301	455	-1709	2015	-5019	-451	-3582
4306	593	-2072	1693	-5019	-451	-3582
4311	796	-2378	1492	885	-841	-1224
4316	920	-2673	1269	885	-841	-1224
4321	985	-2856	1181	885	-841	-1224
4326	1113	-3077	950	885	-841	-1224
4331	1376	-3548	732	885	-841	-1224
4336	1505	-4060	568	885	-841	-1224
4341	1105	-4117	988	885	-841	-1224
4346	811	-3589	1484	-240	152	181
4351	834	-3280	1723	-240	152	181
4356	864	-3142	1776	-240	152	181
4361	845	-3003	1693	-240	152	181
4366	797	-2798	1528	-240	152	181
4371	752	-2627	1385	-240	152	181
4376	699	-2519	1282	-143	383	629
4381	675	-2401	1203	-143	383	629
4386	621	-2297	1197	-143	383	629
4391	557	-2202	1158	-143	383	629
4396	538	-2156	1119	-143	383	629
4401	508	-2097	1043	-143	383	629
4406	528	-2024	954	8	116	692
4411	563	-1936	868	8	116	692
4416	540	-1869	776	8	116	692
4421	550	-1856	754	8	116	692
4426	553	-1811	752	8	116	692
4431	605	-1774	748	8	116	692
4436	670	-1744	748	224	202	636
4441	642	-1736	750	224	202	636
4446	632	-1748	809	224	202	636
4451	644	-1744	863	224	202	636
4456	652	-1725	920	224	202	636
4461	677	-1686	970	224	202	636
4466	661	-1650	987	-39	500	483
4471	653	-1607	1005	-39	500	483
4476	646	-1564	977	-39	500	483
4481	644	-1533	931	-39	500	483
4486	659	-1499	856	-39	500	483
4491	648	-1466	835	-39	500	483
4496	618	-1469	795	-39	500	483
4501	585	-1527	813	27	737	133
4506	594	-1589	836	27	737	133
4511	562	-1636	834	27	737	133
4516	577	-1631	842	27	737	133
4521	598	-1623	818	27	737	133
4526	557	-1612	782	27	737	133
4531	502	-1636	727	-248	570	320
4536	466	-1666	695	-248	570	320
4541	419	-1657	654	-248	570	320
4546	411	-1613	621	-248	570	320
4551	373	-1526	586	-248	570	320
4556	335	-1469	563	-248	570	320
4561	270	-1407	557	291	-185	-426
4566	217	-1360	555	291	-185	-426
4571	236	-1316	525	291	-185	-426
4576	184	-1229	443	291	-185	-426
4581	147	-1208	333	291	-185	-426
4586	166	-1307	274	291	-185	-426
4591	182	-1436	357	706	-754	-342
4596	163	-1544	447	706	-754	-342
4601	168	-1616	530	706	-754	-342
4606	200	-1706	548	706	-754	-342
4611	210	-1798	594	706	-754	-342
4616	208	-1852	613	706	-754	-342
4621	193	-1849	633	703	-1119	-273
4626	194	-1806	615	703	-1119	-273
4631	200	-1692	580	703	-1119	-273
4636	244	-1597	621	703	-1119	-273
4641	106	-1538	635	703	-1119	-273
4646	303	-1465	535	703	-1119	-273
4651	346	-1420	545	703	-1119	-273
4656	296	-1344	625	1023	-1682	-530
4661	302	-1170	615	1023	-1682	-530
4666	257	-1037	620	1023	-1682	-530
4671	173	-898	642	1023	-1682	-530
4676	143	-796	660	1023	-1682	-530
4681	222	-772	629	1023	-1682	-530
4686	345	-724	700	-268	-1477	-960
4691	450	-714	752	-268	-1477	-960
4696	517	-758	782	-268	-1477	-960
4701	581	-816	798	-268	-1477	-960
4706	668	-897	847	-268	-1477	-960
4711	803	-907	923	-268	-1477	-960
4716	956	-884	1018	-834	-354	-1665
4721	1004	-820	1164	-834	-354	-1665
4726	988	-824	1306	-834	-354	-1665
4731	907	-994	1429	-834	-354	-1665
4736	785	-1162	1495	-834	-354	-1665
4741	628	-1138	1395	-834	-354	-1665
4746	674	-1193	1103	1080	-1737	-1634
4751	895	-1315	852	1080	-1737	-1634
4756	1248	-1479	637	1080	-1737	-1634
4761	1585	-1657	667	1080	-1737	-1634
4766	1885	-2100	854	1080	-1737	-1634
4771	1941	-2579	1267	1080	-1737	-1634
4776	1777	-3018	1952	-157	867	436
4781	1715	-3343	2533	-157	867	436
4786	1567	-3360	2981	-157	867	436
4791	1529	-3096	3149	-157	867	436
4796	1671	-2812	2977	-157	867	436
4801	1730	-2808	2654	-157	867	436
4806	1705	-3056	2567	-157	867	436
4811	1737	-3429	2758	297	3254	3215
4816	1839	-3880	3302	297	3254	3215
4821	1923	-4368	3953	297	3254	3215
4826	1985	-4892	4347	297	3254	3215
4831	2154	-5410	4341	297	3254	3215
4836	2266	-5585	4104	297	3254	3215
4841	2515	-5527	3899	2438	8115	8139
4846	2728	-5521	4118	2438	8115	8139
4851	2948	-5526	4690	2438	8115	8139
4856	3374	-5521	5371	2438	8115	8139
4861	3572	-5085	5553	2438	8115	8139
4866	4633	-4755	4917	2438	8115	8139
4871	5367	-4020	3729	590	11773	9884
4876	5267	-2993	2601	590	11773	9884
4881	4973	-1645	988	590	11773	9884
4886	3342	-102	-165	590	11773	9884
4891	2993	-28	-112	590	11773	9884
4896	2922	-66	-101	590	11773	9884
4901	2856	-51	-100	-1603	11452	10240
4906	2828	-37	-96	-1603	11452	10240
4911	2819	-41	-89	-1603	11452	10240
4916	2815	-39	-65	-1603	11452	10240
4921	2808	-35	-79	-1603	11452	10240
4926	2814	-42	-74	-1603	11452	10240
4931	2805	-40	-73	-3713	9532	11841
4936	2794	-31	-79	-3713	9532	11841
4941	2795	-31	-70	-3713	9532	11841
4946	2785	-33	-65	-3713	9532	11841
4951	2784	-31	-82	-3713	9532	11841
4956	2771	-29	-72	-3713	9532	11841
4961	2779	-24	-74	-3713	9532	11841
4966	2777	-32	-67	-5463	5888	13961
4971	2770	-32	-72	-5463	5888	13961
4976	2766	-27	-74	-5463	5888	13961
4981	2769	-29	-59	-5463	5888	13961
4986	2760	-43	-56	-5463	5888	13961
4991	2761	-35	-62	-5463	5888	13961
4996	2758	-37	-81	-6220	529	14892
5001	2762	-43	-76	-6220	529	14892
5006	2760	-41	-79	-6220	529	14892
5011	2766	-41	-60	-6220	529	14892
5016	2763	-43	-74	-6220	529	14892
5021	2769	-52	-81	-6220	529	14892
5026	2763	-48	-84	-5512	-4834	14148
5031	2774	-49	-75	-5512	-4834	14148
5036	2773	-47	-90	-5512	-4834	14148
5041	2785	-57	-94	-5512	-4834	14148
5046	2780	-56	-99	-5512	-4834	14148
5051	2778	-52	-107	-5512	-4834	14148
5056	2774	-53	-112	-6299	-8755	12868
5061	2777	-47	-117	-6299	-8755	12868
5066	2772	-47	-110	-6299	-8755	12868
5071	2772	-43	-128	-6299	-8755	12868
5076	2767	-31	-128	-6299	-8755	12868
5081	3127	-5991	-4215	-6299	-8755	12868
5086	2558	-15959	-8264	-558	-708	1764
5091	74	-1993	-482	-558	-708	1764
5096	-364	-589	-1024	-558	-708	1764
5101	118	-107	-284	-558	-708	1764
5109	-415	246	-499	-558	-708	1764
5111	-189	-440	199	-558	-708	1764
5116	-1795	-319	-52	-558	-708	1764
5121	-3677	-90	990	-1752	2896	-98
5126	-1597	1612	635	-1752	2896	-98
5131	-1480	2100	-552	-1752	2896	-98
5136	-1968	1258	-922	-1752	2896	-98
5141	-1654	929	-1249	-1752	2896	-98
5146	-1584	868	-1441	-1752	2896	-98
5151	-1480	883	-1115	-4072	3237	-248
5156	-1340	895	-733	-4072	3237	-248
5161	-1169	791	-512	-4072	3237	-248
5166	-870	547	-392	-4072	3237	-248
5171	-629	310	-395	-4072	3237	-248
5176	-381	150	-577	-4072	3237	-248
5181	-223	6	-722	-4805	2786	2047
5186	39	-23	-959	-4805	2786	2047
5191	160	-18	-1219	-4805	2786	2047
5196	354	59	-1508	-4805	2786	2047
5201	483	124	-1814	-4805	2786	2047
5206	363	202	-2024	-4805	2786	2047
5211	411	378	-2001	-2495	2492	4155
5216	506	577	-1863	-2495	2492	4155
5221	563	654	-1681	-2495	2492	4155
5226	692	705	-1403	-2495	2492	4155
5231	630	945	-1102	-2495	2492	4155
5236	718	1212	-923	-2495	2492	4155
5241	899	1655	-921	-112	2702	1181
5246	1333	1994	-924	-112	2702	1181
5251	1855	2593	-1292	-112	2702	1181
5256	2062	3532	-1850	-112	2702	1181
5261	2003	4124	-2384	-112	2702	1181
5266	1864	3891	-2903	-112	2702	1181
5271	1436	3097	-3162	-112	2702	1181
5276	1415	2607	-2991	939	408	-830
5281	1664	2733	-2809	939	408	-830
5286	1589	3509	-2917	939	408	-830
5291	1464	4407	-3186	939	408	-830
5296	1455	4948	-3556	939	408	-830
5301	1297	4837	-3899	939	408	-830
5306	1300	4458	-3877	-35	-1956	-3098
5311	1482	4115	-3626	-35	-1956	-3098
5316	1596	4196	-3534	-35	-1956	-3098
5321	1616	4609	-3734	-35	-1956	-3098
5326	1563	4893	-3991	-35	-1956	-3098
5331	1436	5054	-4162	-35	-1956	-3098
5336	1478	5256	-3980	921	-3741	-7722
5341	1567	5513	-3526	921	-3741	-7722
5346	1681	5847	-3233	921	-3741	-7722
5351	1800	6208	-3399	921	-3741	-7722
5356	2245	6426	-3602	921	-3741	-7722
5361	2520	6021	-3854	921	-3741	-7722
5366	2826	5262	-4122	1212	-7572	-10085
5371	3009	4292	-3905	1212	-7572	-10085
5376	3432	3398	-3282	1212	-7572	-10085
5381	3486	2347	-2347	1212	-7572	-10085
5386	2957	1214	-1627	1212	-7572	-10085
5391	2607	494	-1011	1212	-7572	-10085
5396	2231	123	-672	-351	-7795	-9722
5401	2002	19	-342	-351	-7795	-9722
5406	1913	-44	-80	-351	-7795	-9722
5411	1909	-43	-73	-351	-7795	-9722
5416	1894	-43	-90	-351	-7795	-9722
5421	1902	-36	-87	-351	-7795	-9722
5426	1898	-51	-101	-351	-7795	-9722
5431	1898	-42	-98	-1697	-7086	-10312
5436	1904	-45	-98	-1697	-7086	-10312
5441	1897	-45	-109	-1697	-7086	-10312
5446	1894	-48	-113	-1697	-7086	-10312
5451	1890	-51	-103	-1697	-7086	-10312
5456	1886	-52	-120	-1697	-7086	-10312
5461	1882	-47	-110	-2887	-5576	-11074
5466	1873	-55	-112	-2887	-5576	-11074
5471	1877	-53	-107	-2887	-5576	-11074
5476	1871	-56	-123	-2887	-5576	-11074
5481	1865	-53	-113	-2887	-5576	-11074
5486	1864	-54	-112	-2887	-5576	-11074
5491	1859	-58	-106	-3774	-3052	-11969
5496	1854	-60	-124	-3774	-3052	-11969
5501	1858	-60	-128	-3774	-3052	-11969
5506	1851	-50	-130	-3774	-3052	-11969
5511	1845	-53	-131	-3774	-3052	-11969
5516	1848	-47	-134	-3774	-3052	-11969
5521	1832	-53	-145	-4034	41	-12389
5526	1842	-42	-135	-4034	41	-12389
5531	1839	-38	-144	-4034	41	-12389
5536	1839	-44	-132	-4034	41	-12389
5541	1824	-31	-146	-4034	41	-12389
5546	1835	-28	-146	-4034	41	-12389
5551	1834	-24	-129	-3542	3059	-11988
5556	1823	-21	-154	-3542	3059	-11988
5561	1832	-14	-144	-3542	3059	-11988
5566	1825	-11	-152	-3542	3059	-11988
5571	1826	-6	-152	-3542	3059	-11988
5576	1823	-3	-155	-3542	3059	-11988
5581	1824	6	-143	-3542	3059	-11988
5586	1827	20	-157	1084	-879	-11091
5591	2396	2042	-1157	1084	-879	-11091
5596	2556	2040	-1272	1084	-879	-11091
5601	4962	11179	1482	1084	-879	-11091
5606	5158	8018	2941	1084	-879	-11091
5611	3790	5408	-1053	1084	-879	-11091
5616	1131	1350	-2592	-1420	376	2091
5621	1074	1036	-1453	-1420	376	2091
5626	1061	1339	-215	-1420	376	2091
5631	-726	-477	1415	-1420	376	2091
5636	-2353	-3163	1307	-1420	376	2091
5641	-525	-2702	600	-1420	376	2091
5646	137	-2189	615	3352	302	3613
5651	-7	-750	557	3352	302	3613
5656	647	767	-11	3352	302	3613
5661	1746	2386	-1160	3352	302	3613
5666	2084	4079	-2065	3352	302	3613
5671	1074	5093	-2539	3352	302	3613
5676	1299	5440	-2178	-1917	-790	-203
5681	1451	5128	-1547	-1917	-790	-203
5686	1027	4178	-950	-1917	-790	-203
5691	812	2962	-171	-1917	-790	-203
5696	619	1997	556	-1917	-790	-203
5701	387	1247	928	-1917	-790	-203
5706	594	809	1077	1375	164	3050
5711	520	351	815	1375	164	3050
5716	355	231	362	1375	164	3050
5721	240	575	31	1375	164	3050
5726	441	1157	-408	1375	164	3050
5731	484	1414	-505	1375	164	3050
5736	626	1589	-470	1375	164	3050
5741	766	1731	-270	-1089	1010	1660
5746	758	1825	-284	-1089	1010	1660
5751	820	1879	-116	-1089	1010	1660
5756	779	1832	-23	-1089	1010	1660
5761	700	1683	11	-1089	1010	1660
5766	814	1492	-1	-1089	1010	1660
5771	901	1264	-130	1570	1000	3755
5776	927	1125	-173	1570	1000	3755
5781	921	1162	-216	1570	1000	3755
5786	1185	1393	-240	1570	1000	3755
5791	1484	1733	-102	1570	1000	3755
5796	1689	2330	7	1570	1000	3755
5801	1896	3035	-74	1291	1301	257
5806	2053	3608	-173	1291	1301	257
5811	2300	4067	-393	1291	1301	257
5816	2336	4343	-865	1291	1301	257
5821	2094	4399	-1541	1291	1301	257
5826	2042	4418	-2112	1291	1301	257
5831	2125	4422	-2485	235	-1315	-1168
5836	2139	4309	-2507	235	-1315	-1168
5841	1934	4102	-2306	235	-1315	-1168
5846	1800	3987	-1918	235	-1315	-1168
5851	1754	3948	-1758	235	-1315	-1168
5856	1840	4217	-1603	235	-1315	-1168
5861	2055	4601	-1542	2537	-1648	-5522
5866	2325	5266	-1538	2537	-1648	-5522
5871	2519	6016	-1555	2537	-1648	-5522
5876	2614	6625	-1474	2537	-1648	-5522
5881	2848	6948	-1311	2537	-1648	-5522
5886	3097	7152	-1286	2537	-1648	-5522
5891	3503	7111	-1542	2537	-1648	-5522
5896	4010	6878	-1929	1213	-5924	-10999
5901	4332	6704	-2489	1213	-5924	-10999
5906	4612	6294	-2873	1213	-5924	-10999
5911	4894	5425	-2785	1213	-5924	-10999
5916	5151	4164	-2425	1213	-5924	-10999
5921	4696	2513	-1906	1213	-5924	-10999
5926	4302	1212	-1232	-61	-6438	-11954
5931	3482	208	-471	-61	-6438	-11954
5936	2828	-222	-46	-61	-6438	-11954
5941	2695	-159	14	-61	-6438	-11954
5946	2571	-96	-95	-61	-6438	-11954
5951	2666	-221	163	-61	-6438	-11954
5956	2249	-432	564	-263	-5081	-11226
5961	1826	-63	-54	-263	-5081	-11226
5966	1817	-34	-106	-263	-5081	-11226
5971	1814	-44	-112	-263	-5081	-11226
5976	1814	-38	-113	-263	-5081	-11226
5981	1811	-33	-123	-263	-5081	-11226
5986	1813	-47	-121	-1218	-4529	-11327
5991	1809	-40	-115	-1218	-4529	-11327
5996	1807	-45	-129	-1218	-4529	-11327
6001	1810	-51	-116	-1218	-4529	-11327
6006	1801	-45	-125	-1218	-4529	-11327
6011	1801	-48	-116	-1218	-4529	-11327
6016	1793	-54	-134	-1992	-3250	-11832
6021	1799	-43	-121	-1992	-3250	-11832
6026	1795	-49	-126	-1992	-3250	-11832
6031	1797	-47	-129	-1992	-3250	-11832
6036	1781	-41	-136	-1992	-3250	-11832
6041	1792	-46	-113	-1992	-3250	-11832
6046	1783	-51	-127	-1992	-3250	-11832
6051	1786	-52	-122	-2476	-1566	-11913
6056	1788	-49	-137	-2476	-1566	-11913
6061	1788	-42	-134	-2476	-1566	-11913
6066	1787	-48	-136	-2476	-1566	-11913
6071	1781	-51	-145	-2476	-1566	-11913
6076	1775	-39	-127	-2476	-1566	-11913
6081	1769	-38	-142	-2521	330	-12153
6086	1770	-34	-142	-2521	330	-12153
6091	1770	-33	-140	-2521	330	-12153
6096	1778	-23	-138	-2521	330	-12153
6101	1776	-22	-140	-2521	330	-12153
6106	1767	-21	-140	-2521	330	-12153
6111	1768	-20	-134	-2096	2142	-11733
6116	1765	-16	-143	-2096	2142	-11733
6121	1757	-9	-144	-2096	2142	-11733
6126	1767	-4	-139	-2096	2142	-11733
6131	1769	-4	-128	-2096	2142	-11733
6136	1768	5	-133	-2096	2142	-11733
6141	1755	3	-127	9881	264	-5648
6146	1759	13	-142	9881	264	-5648
6151	1762	10	-144	9881	264	-5648
6156	1763	9	-121	9881	264	-5648
6161	3127	3919	486	9881	264	-5648
6166	5630	17329	5147	9881	264	-5648
6171	1398	4456	-578	625	-99	4518
6176	-376	-136	60	625	-99	4518
6181	-2451	-6719	-4451	625	-99	4518
6186	-1322	-1753	-547	625	-99	4518
6191	-335	-1314	573	625	-99	4518
6196	-675	1079	706	625	-99	4518
6201	-1674	2687	108	625	-99	4518
6206	-1638	3330	-1047	-2727	1496	1920
6211	-978	3010	-682	-2727	1496	1920
6216	-492	2532	236	-2727	1496	1920
6221	-126	2872	1226	-2727	1496	1920
6226	35	2906	1075	-2727	1496	1920
6231	32	3102	794	-2727	1496	1920
6236	55	3285	396	1843	58	1965
6241	285	3165	-88	1843	58	1965
6246	498	2673	-737	1843	58	1965
6251	672	2077	-1351	1843	58	1965
6256	604	1724	-1485	1843	58	1965
6261	12	1074	-218	1843	58	1965
6266	139	1002	-1129	1451	-340	2772
6271	215	1023	-1062	1451	-340	2772
6276	416	1137	-909	1451	-340	2772
6281	750	1163	-712	1451	-340	2772
6286	1087	1940	-451	1451	-340	2772
6291	1118	2159	-404	1451	-340	2772
6296	1229	2740	-190	882	-571	818
6301	1308	3455	-230	882	-571	818
6306	1280	3541	-459	882	-571	818
6311	1214	3458	-807	882	-571	818
6316	993	3160	-1073	882	-571	818
6321	870	2935	-1283	882	-571	818
6326	951	2715	-1269	1410	772	1019
6331	1027	2442	-1147	1410	772	1019
6336	845	2132	-968	1410	772	1019
6341	673	1787	-721	1410	772	1019
6346	659	1451	-508	1410	772	1019
6351	648	1340	-624	1410	772	1019
6356	656	1448	-891	1410	772	1019
6361	780	1593	-1155	1865	-308	78
6366	959	1764	-1313	1865	-308	78
6371	1052	1961	-1416	1865	-308	78
6376	1038	1990	-1391	1865	-308	78
6381	916	1952	-1354	1865	-308	78
6386	873	1776	-1188	1865	-308	78
6391	938	1521	-1031	822	793	1384
6396	1090	1300	-920	822	793	1384
6401	1314	1047	-849	822	793	1384
6406	1478	942	-724	822	793	1384
6411	1474	1063	-660	822	793	1384
6416	1500	1434	-681	822	793	1384
6421	1534	1898	-769	231	868	475
6426	1580	2229	-997	231	868	475
6431	1347	2454	-1265	231	868	475
6436	1167	2508	-1567	231	868	475
6441	1202	2655	-1755	231	868	475
6446	1329	2766	-2026	231	868	475
6451	1329	2911	-2357	-162	-1052	-1286
6456	1427	3212	-2713	-162	-1052	-1286
6461	1322	3392	-2993	-162	-1052	-1286
6466	1180	3465	-3046	-162	-1052	-1286
6471	1236	3657	-2895	-162	-1052	-1286
6476	1250	3914	-2725	-162	-1052	-1286
6481	1565	4673	-2599	659	-3048	-5139
6486	1785	5540	-2849	659	-3048	-5139
6491	1930	6185	-3403	659	-3048	-5139
6496	1892	5843	-3938	659	-3048	-5139
6501	2027	5043	-3774	659	-3048	-5139
6506	2254	4265	-3309	659	-3048	-5139
6511	2372	3262	-2759	659	-3048	-5139
6516	2556	2365	-2155	-119	-2329	-4781
6521	2577	1760	-1580	-119	-2329	-4781
6526	2344	1462	-1124	-119	-2329	-4781
6531	2536	1289	-582	-119	-2329	-4781
6536	2650	1207	23	-119	-2329	-4781
6541	2525	1254	205	-119	-2329	-4781
6546	2172	1209	-11	1242	-2606	-4511
6551	1708	1096	-437	1242	-2606	-4511
6556	1408	952	-883	1242	-2606	-4511
6561	1380	858	-1134	1242	-2606	-4511
6566	1263	898	-1320	1242	-2606	-4511
6571	1108	724	-1386	1242	-2606	-4511
6576	1078	403	-1387	-1378	-3215	-3424
6581	1107	134	-1250	-1378	-3215	-3424
6586	1091	-84	-891	-1378	-3215	-3424
6591	980	-204	-681	-1378	-3215	-3424
6596	713	-161	-624	-1378	-3215	-3424
6601	310	-145	-567	-1378	-3215	-3424
6606	-93	-172	-432	696	-120	-1243
6611	-512	-22	-101	696	-120	-1243
6616	-989	-25	366	696	-120	-1243
6621	-1202	127	819	696	-120	-1243
6626	-1264	374	1030	696	-120	-1243
6631	-1370	437	1084	696	-120	-1243
6636	-1429	437	964	17	1456	-150
6641	-1340	345	763	17	1456	-150
6646	-1282	372	453	17	1456	-150
6651	-1133	306	28	17	1456	-150
6656	-1061	144	-276	17	1456	-150
6661	-920	86	-562	17	1456	-150
6666	-788	66	-845	17	1456	-150
6671	-688	64	-1117	-714	470	1000
6676	-688	-7	-1264	-714	470	1000
6681	-706	-165	-1273	-714	470	1000
6686	-772	-310	-1284	-714	470	1000
6691	-773	-299	-1266	-714	470	1000
6696	-841	-182	-1188	-714	470	1000
6701	-917	-11	-1037	-1034	653	1420
6706	-932	244	-825	-1034	653	1420
6711	-1017	323	-555	-1034	653	1420
6716	-989	308	-318	-1034	653	1420
6721	-971	273	-266	-1034	653	1420
6726	-924	194	-252	-1034	653	1420
6731	-866	115	-318	-665	1605	2235
6736	-849	96	-461	-665	1605	2235
6741	-902	227	-512	-665	1605	2235
6746	-907	469	-270	-665	1605	2235
6751	-851	611	-92	-665	1605	2235
6756	-832	479	-154	-665	1605	2235
6761	-693	469	-351	778	2506	4110
6766	-626	541	-608	778	2506	4110
6771	-536	691	-707	778	2506	4110
6776	-407	1029	-644	778	2506	4110
6781	-193	1513	-734	778	2506	4110
6786	142	2179	-1124	778	2506	4110
6791	420	2604	-1651	-2752	1033	2056
6796	607	2836	-2046	-2752	1033	2056
6801	610	2825	-2354	-2752	1033	2056
6806	411	2365	-2491	-2752	1033	2056
6811	207	1627	-2249	-2752	1033	2056
6816	131	1542	-1917	-2752	1033	2056
6821	112	1928	-1947	-2752	1033	2056
6826	13	2329	-2004	638	578	2554
6831	-38	2455	-1954	638	578	2554
6836	25	2228	-1570	638	578	2554
6841	199	1646	-1126	638	578	2554
6846	256	897	-711	638	578	2554
6851	317	353	-292	638	578	2554
6856	566	280	-59	1199	2010	3389
6861	935	812	57	1199	2010	3389
6866	1273	1531	-448	1199	2010	3389
6871	1306	1970	-1237	1199	2010	3389
6876	1151	2239	-2094	1199	2010	3389
6881	1078	2576	-2708	1199	2010	3389
6886	984	2777	-3072	-907	346	1911
6891	910	2637	-3035	-907	346	1911
6896	871	2343	-2610	-907	346	1911
6901	802	2115	-1951	-907	346	1911
6906	927	2068	-1564	-907	346	1911
6911	1275	2476	-1348	-907	346	1911
6916	1252	2966	-1469	318	-759	-1668
6921	1112	3537	-1828	318	-759	-1668
6926	1138	4284	-2297	318	-759	-1668
6931	1085	5024	-2886	318	-759	-1668
6936	1088	5823	-3549	318	-759	-1668
6941	1122	6597	-4158	318	-759	-1668
6946	1070	7085	-4642	1203	-3322	-5831
6951	1333	6761	-4423	1203	-3322	-5831
6956	1407	6371	-4187	1203	-3322	-5831
6961	1403	6002	-4057	1203	-3322	-5831
6966	1595	5694	-4050	1203	-3322	-5831
6971	1774	5692	-4295	1203	-3322	-5831
6976	2034	6152	-4728	1203	-3322	-5831
6981	2379	6398	-5338	-4637	-7574	-11695
6986	2806	5989	-5286	-4637	-7574	-11695
6991	3446	4561	-4650	-4637	-7574	-11695
6996	4304	3814	-3528	-4637	-7574	-11695
7001	4421	2727	-2390	-4637	-7574	-11695
7006	4171	1869	-1631	-4637	-7574	-11695
7011	4166	1350	-906	-5029	-4398	-14141
7016	3372	160	-424	-5029	-4398	-14141
7021	3104	-95	-168	-5029	-4398	-14141
7026	3078	-94	-94	-5029	-4398	-14141
7031	3059	-120	-112	-5029	-4398	-14141
7036	3056	-116	-136	-5029	-4398	-14141
7041	3046	-100	-148	-5428	499	-14825
7046	3041	-98	-166	-5428	499	-14825
7051	3025	-90	-153	-5428	499	-14825
7056	3024	-81	-181	-5428	499	-14825
7061	3023	-63	-170	-5428	499	-14825
7066	3013	-61	-169	-5428	499	-14825
7071	3006	-61	-171	-4493	5115	-13851
7076	3011	-40	-180	-4493	5115	-13851
7081	2997	-36	-172	-4493	5115	-13851
7086	3006	-36	-172	-4493	5115	-13851
7091	3000	-24	-169	-4493	5115	-13851
7096	3003	-11	-182	-4493	5115	-13851
7101	2998	-2	-176	-2708	8222	-12396
7106	3005	3	-170	-2708	8222	-12396
7111	3014	13	-182	-2708	8222	-12396
7116	3017	9	-165	-2708	8222	-12396
7121	3023	16	-172	-2708	8222	-12396
7126	3029	18	-164	-2708	8222	-12396
7131	3028	24	-168	-2708	8222	-12396
7136	3035	27	-159	-712	9370	-11427
7141	3038	24	-166	-712	9370	-11427
7146	3037	21	-149	-712	9370	-11427
7151	3042	29	-147	-712	9370	-11427
7156	3054	31	-139	-712	9370	-11427
7161	3054	26	-130	-712	9370	-11427
7166	3047	25	-135	1224	9136	-11658
7171	3052	20	-134	1224	9136	-11658
7176	3054	16	-126	1224	9136	-11658
7181	3045	21	-137	1224	9136	-11658
7186	3058	9	-107	1224	9136	-11658
7191	3049	5	-123	1224	9136	-11658
7196	3041	2	-115	-17264	-2475	3594
7201	3040	3	-122	-17264	-2475	3594
7206	3026	-10	-114	-17264	-2475	3594
7211	-6921	3969	-1968	-17264	-2475	3594
7216	-2166	1805	911	-17264	-2475	3594
7221	-69	363	501	-17264	-2475	3594
7226	-365	823	2464	-1827	-933	-2572
7231	-503	1622	2183	-1827	-933	-2572
7236	-1423	3243	3326	-1827	-933	-2572
7241	-1812	4016	2976	-1827	-933	-2572
7246	-706	2999	2430	-1827	-933	-2572
7251	-4	1203	2452	-1827	-933	-2572
7256	-514	-1327	2465	-2495	-892	1146
7261	-1039	-1660	2067	-2495	-892	1146
7266	-1412	-484	1996	-2495	-892	1146
7271	-1270	-485	1692	-2495	-892	1146
7276	-1171	-459	1600	-2495	-892	1146
7281	-1194	-399	1570	-2495	-892	1146
7286	-1214	-452	1482	-2495	-892	1146
7291	-940	-353	1679	-5204	261	768
7296	-718	-82	2043	-5204	261	768
7301	-553	253	2394	-5204	261	768
7306	-373	452	2593	-5204	261	768
7311	-221	529	2592	-5204	261	768
7316	-169	364	2639	-5204	261	768
7321	-196	32	2704	-1947	-862	-544
7326	-152	-127	2562	-1947	-862	-544
7331	40	88	2074	-1947	-862	-544
7336	319	335	1500	-1947	-862	-544
7341	404	356	1148	-1947	-862	-544
7346	289	355	1085	-1947	-862	-544
7351	27	314	1262	-4850	-221	-1404
7356	-335	84	1294	-4850	-221	-1404
7361	-405	-260	1260	-4850	-221	-1404
7366	-474	-565	1122	-4850	-221	-1404
7371	-451	-761	1105	-4850	-221	-1404
7376	-457	-1004	1173	-4850	-221	-1404
7381	-390	-1140	1271	-2554	-414	-1514
7386	-285	-1038	1239	-2554	-414	-1514
7391	-145	-880	1109	-2554	-414	-1514
7396	44	-794	962	-2554	-414	-1514
7401	169	-795	904	-2554	-414	-1514
7406	228	-756	750	-2554	-414	-1514
7411	206	-662	639	-1840	-2720	-2998
7416	400	-318	379	-1840	-2720	-2998
7421	350	-359	172	-1840	-2720	-2998
7426	316	-490	52	-1840	-2720	-2998
7431	707	-566	-137	-1840	-2720	-2998
7436	1039	-692	9	-1840	-2720	-2998
7441	1224	-987	638	-1840	-2720	-2998
7446	1340	-1327	1302	-2408	-919	-3458
7451	1323	-1630	1837	-2408	-919	-3458
7456	1134	-1831	2198	-2408	-919	-3458
7461	937	-1985	2261	-2408	-919	-3458
7466	884	-2242	2125	-2408	-919	-3458
7471	917	-2355	1852	-2408	-919	-3458
7476	964	-2429	1527	-519	-1183	-1867
7481	974	-2419	1257	-519	-1183	-1867
7486	1079	-2502	1009	-519	-1183	-1867
7491	1037	-2508	884	-519	-1183	-1867
7496	1017	-2574	861	-519	-1183	-1867
7501	1154	-3157	988	-519	-1183	-1867
7506	1471	-3984	1249	1117	-374	1669
7511	1538	-4608	1745	1117	-374	1669
7516	1483	-4861	2273	1117	-374	1669
7521	1479	-4963	2603	1117	-374	1669
7526	1620	-4963	2676	1117	-374	1669
7531	1914	-5232	2729	1117	-374	1669
7536	2198	-5845	3174	57	2953	7715
7541	2198	-6571	3812	57	2953	7715
7546	2266	-7024	4101	57	2953	7715
7551	2288	-7088	4158	57	2953	7715
7556	2564	-6896	3903	57	2953	7715
7561	2832	-6718	3466	57	2953	7715
7566	3003	-6492	3394	174	6684	11295
7571	3045	-6086	3146	174	6684	11295
7576	3508	-5568	3316	174	6684	11295
7581	4008	-4971	3130	174	6684	11295
7586	4503	-4140	2635	174	6684	11295
7591	4432	-3172	2097	174	6684	11295
7596	4508	-2495	1582	174	6684	11295
7601	3736	-1279	763	-2446	6005	12631
7606	3049	-463	189	-2446	6005	12631
7611	2797	-45	-63	-2446	6005	12631
7616	2762	-37	-106	-2446	6005	12631
7621	2755	-33	-96	-2446	6005	12631
7626	2761	-30	-105	-2446	6005	12631
7631	2752	-29	-96	-3547	3517	13619
7636	2757	-37	-94	-3547	3517	13619
7641	2749	-34	-99	-3547	3517	13619
7646	2757	-46	-89	-3547	3517	13619
7651	2747	-34	-100	-3547	3517	13619
7656	2751	-43	-92	-3547	3517	13619
7661	2738	-36	-95	-3927	225	13924
7666	2743	-41	-91	-3927	225	13924
7671	2749	-45	-97	-3927	225	13924
7676	2748	-33	-99	-3927	225	13924
7681	2741	-31	-98	-3927	225	13924
7686	2745	-35	-104	-3927	225	13924
7691	2739	-37	-104	-3417	-2967	13623
7696	2743	-31	-105	-3417	-2967	13623
7701	2747	-27	-99	-3417	-2967	13623
7706	2744	-27	-103	-3417	-2967	13623
7711	2736	-20	-101	-3417	-2967	13623
7716	2740	-26	-102	-3417	-2967	13623
7721	2747	-22	-109	-2340	-5287	12972
7726	2741	-24	-111	-2340	-5287	12972
7731	2747	-20	-106	-2340	-5287	12972
7736	2741	-13	-101	-2340	-5287	12972
7741	2743	-23	-111	-2340	-5287	12972
7746	2752	-25	-118	-2340	-5287	12972
7751	2737	-19	-126	-2340	-5287	12972
7756	2741	-13	-120	-946	-6375	12330
7761	2741	-12	-143	-946	-6375	12330
7766	2729	-14	-133	-946	-6375	12330
7771	2733	-1	-129	-946	-6375	12330
7776	2724	-9	-144	-946	-6375	12330
7781	2726	-8	-157	-946	-6375	12330
7786	2708	-7	-141	433	-6505	12235
7791	2707	-13	-147	433	-6505	12235
7796	2699	-9	-165	433	-6505	12235
7801	2691	-3	-149	433	-6505	12235
7806	2684	-4	-149	433	-6505	12235
7811	2677	6	-154	433	-6505	12235
7816	2669	8	-167	134	4027	-2752
7821	-11532	1697	5280	134	4027	-2752
7826	53	-1088	-364	134	4027	-2752
7831	-530	-1735	-4930	134	4027	-2752
7836	-549	475	-3537	134	4027	-2752
7841	-498	-115	-3631	134	4027	-2752
7846	-213	-730	-4401	-1927	1329	1026
7851	-468	-2715	-5108	-1927	1329	1026
7856	-1362	-7164	-3046	-1927	1329	1026
7861	-558	-6242	-2393	-1927	1329	1026
7866	-269	-3737	-1393	-1927	1329	1026
7871	-32	976	-1565	-1927	1329	1026
7876	-292	1742	-2363	-1413	-86	-136
7881	-929	602	-2030	-1413	-86	-136
7886	-950	126	-2517	-1413	-86	-136
7891	-819	-585	-3335	-1413	-86	-136
7896	-795	-1174	-3698	-1413	-86	-136
7901	-786	-1145	-3658	-1413	-86	-136
7906	-746	-987	-3232	-1413	-86	-136
7911	-814	-680	-2891	-3079	-980	-578
7916	-809	-401	-2678	-3079	-980	-578
7921	-728	-235	-2508	-3079	-980	-578
7926	-640	-234	-2561	-3079	-980	-578
7931	-452	-406	-2824	-3079	-980	-578
7936	-348	-624	-3045	-3079	-980	-578
7941	-262	-743	-3229	-314	-982	442
7946	-283	-785	-3100	-314	-982	442
7951	-286	-744	-2686	-314	-982	442
7956	-92	-804	-2313	-314	-982	442
7961	-37	-1091	-2086	-314	-982	442
7966	-169	-1123	-2137	-314	-982	442
7971	-312	-689	-2349	-1501	-2369	534
7976	-243	-258	-2625	-1501	-2369	534
7981	-431	-271	-2737	-1501	-2369	534
7986	-674	-319	-2566	-1501	-2369	534
7991	-706	-170	-2249	-1501	-2369	534
7996	-554	77	-2292	-1501	-2369	534
8001	-665	351	-2021	-403	-762	-136
8006	-780	542	-1629	-403	-762	-136
8011	-836	558	-1365	-403	-762	-136
8016	-848	364	-1274	-403	-762	-136
8021	-849	80	-1211	-403	-762	-136
8026	-851	-143	-1287	-403	-762	-136
8031	-839	-233	-1415	-891	75	14
8036	-751	-214	-1586	-891	75	14
8041	-748	-130	-1539	-891	75	14
8046	-727	-76	-1363	-891	75	14
8051	-706	-57	-1030	-891	75	14
8056	-697	13	-547	-891	75	14
8061	-645	80	-295	-891	75	14
8066	-601	63	-117	-1361	3318	34
8071	-554	-26	61	-1361	3318	34
8076	-394	-73	217	-1361	3318	34
8081	-227	-154	337	-1361	3318	34
8086	-7	-209	402	-1361	3318	34
8091	223	-168	578	-1361	3318	34
8096	433	-273	390	-1624	4800	2371
8101	574	-635	-332	-1624	4800	2371
8106	705	-999	-1245	-1624	4800	2371
8111	614	-1557	-1872	-1624	4800	2371
8116	538	-1368	-1933	-1624	4800	2371
8121	708	-771	-1921	-1624	4800	2371
8126	940	-198	-1657	-2155	4601	3106
8131	655	263	-1555	-2155	4601	3106
8136	624	740	-1760	-2155	4601	3106
8141	821	1096	-2183	-2155	4601	3106
8146	1004	1518	-2808	-2155	4601	3106
8151	915	1887	-3221	-2155	4601	3106
8156	974	1790	-3293	-2446	1684	1773
8161	1077	1495	-3238	-2446	1684	1773
8166	1222	1247	-3223	-2446	1684	1773
8171	1341	1193	-3399	-2446	1684	1773
8176	1389	1326	-3695	-2446	1684	1773
8181	1451	1488	-3874	-2446	1684	1773
8186	1449	1701	-4054	-187	-802	-827
8191	1525	2127	-4298	-187	-802	-827
8196	1736	2605	-4487	-187	-802	-827
8201	1864	2928	-4522	-187	-802	-827
8206	1489	3051	-4406	-187	-802	-827
8211	1053	2784	-4475	-187	-802	-827
8216	1109	2666	-4725	-187	-802	-827
8221	1351	2742	-5239	439	-4776	-3245
8226	1408	2943	-5857	439	-4776	-3245
8231	1492	3259	-6206	439	-4776	-3245
8236	1593	3802	-6369	439	-4776	-3245
8241	1720	4171	-6639	439	-4776	-3245
8246	1986	4110	-6793	439	-4776	-3245
8251	2361	3921	-6805	-2846	-10637	-7460
8256	2546	3697	-6934	-2846	-10637	-7460
8261	2922	3498	-7244	-2846	-10637	-7460
8266	3484	3103	-6934	-2846	-10637	-7460
8271	4128	2595	-6096	-2846	-10637	-7460
8276	4542	2092	-4944	-2846	-10637	-7460
8281	4826	1500	-3367	-5447	-9677	-10510
8286	4747	948	-1959	-5447	-9677	-10510
8291	3946	244	-841	-5447	-9677	-10510
8296	3032	-136	-146	-5447	-9677	-10510
8301	2897	-128	-77	-5447	-9677	-10510
8306	2889	-131	-87	-5447	-9677	-10510
8311	2881	-126	-84	-7108	-5020	-13343
8316	2862	-119	-116	-7108	-5020	-13343
8321	2843	-115	-112	-7108	-5020	-13343
8326	2835	-110	-124	-7108	-5020	-13343
8331	2818	-117	-145	-7108	-5020	-13343
8336	2817	-112	-159	-7108	-5020	-13343
8341	2800	-94	-152	-7359	1668	-14189
8346	2790	-89	-152	-7359	1668	-14189
8351	2782	-73	-166	-7359	1668	-14189
8356	2777	-72	-179	-7359	1668	-14189
8361	2775	-52	-160	-7359	1668	-14189
8366	2757	-53	-169	-7359	1668	-14189
8371	2756	-29	-165	-7359	1668	-14189
8376	2755	-22	-169	-6118	7290	-12292
8381	2746	-8	-185	-6118	7290	-12292
8386	2757	7	-184	-6118	7290	-12292
8391	2755	18	-191	-6118	7290	-12292
8396	2754	31	-180	-6118	7290	-12292
8401	2765	37	-168	-6118	7290	-12292
8406	2765	48	-171	-4186	10822	-9464
8411	2769	54	-174	-4186	10822	-9464
8416	2787	49	-181	-4186	10822	-9464
8421	2783	62	-153	-4186	10822	-9464
8426	2800	60	-151	-4186	10822	-9464
8431	2798	67	-129	-4186	10822	-9464
8436	2809	69	-121	-2411	12409	-7066
8441	2807	62	-146	-2411	12409	-7066
8446	2810	71	-122	-2411	12409	-7066
8451	2814	63	-117	-2411	12409	-7066
8456	2821	58	-99	-2411	12409	-7066
8461	2820	50	-91	-2411	12409	-7066
8466	2815	60	-97	-3298	5100	5592
8471	2817	49	-92	-3298	5100	5592
8476	3079	263	15	-3298	5100	5592
8481	1295	114	-417	-3298	5100	5592
8486	1465	29	-6	-3298	5100	5592
8491	2054	977	2655	-3298	5100	5592
8496	-750	4589	704	3865	-1213	-1086
8501	-629	378	1156	3865	-1213	-1086
8506	-206	202	1204	3865	-1213	-1086
8511	-510	-148	2122	3865	-1213	-1086
8516	-1256	-497	2214	3865	-1213	-1086
8521	13	-345	2541	3865	-1213	-1086
8526	-346	168	2581	3865	-1213	-1086
8531	-923	564	3071	-2713	827	634
8536	-1119	437	3095	-2713	827	634
8541	-934	-297	2881	-2713	827	634
8546	-792	-999	2611	-2713	827	634
8551	-883	-1255	2470	-2713	827	634
8556	-906	-1178	2552	-2713	827	634
8561	-843	-882	2700	-2114	459	27
8566	-854	-431	2610	-2114	459	27
8571	-793	-37	2287	-2114	459	27
8576	-768	286	1750	-2114	459	27
8581	-800	446	1315	-2114	459	27
8586	-683	459	1003	-2114	459	27
8591	-664	336	961	-2538	198	-921
8596	-638	200	1301	-2538	198	-921
8601	-602	-56	1780	-2538	198	-921
8606	-586	-376	2146	-2538	198	-921
8611	-605	-692	2333	-2538	198	-921
8616	-622	-929	2231	-2538	198	-921
8621	-569	-1108	1915	-1312	-29	-64
8626	-491	-1200	1607	-1312	-29	-64
8631	-446	-1206	1436	-1312	-29	-64
8636	-456	-1223	1434	-1312	-29	-64
8641	-499	-1191	1560	-1312	-29	-64
8646	-566	-1151	1683	-1312	-29	-64
8651	-592	-1142	1742	-2565	496	320
8656	-564	-1130	1760	-2565	496	320
8661	-582	-1097	1659	-2565	496	320
8666	-535	-974	1418	-2565	496	320
8671	-580	-855	1093	-2565	496	320
8676	-682	-758	762	-2565	496	320
8681	-676	-581	482	-2565	496	320
8686	-573	-416	295	-2228	-701	-815
8691	-356	-166	165	-2228	-701	-815
8696	-215	41	48	-2228	-701	-815
8701	-276	143	-17	-2228	-701	-815
8706	-256	226	33	-2228	-701	-815
8711	-174	232	72	-2228	-701	-815
8716	-9	349	42	-1881	-2332	-3449
8721	103	355	36	-1881	-2332	-3449
8726	162	279	14	-1881	-2332	-3449
8731	85	278	-43	-1881	-2332	-3449
8736	241	39	3	-1881	-2332	-3449
8741	506	-299	190	-1881	-2332	-3449
8746	674	-565	438	-265	-1554	-4536
8751	767	-805	664	-265	-1554	-4536
8756	758	-1022	818	-265	-1554	-4536
8761	858	-1184	903	-265	-1554	-4536
8766	1096	-1158	794	-265	-1554	-4536
8771	1259	-1104	592	-265	-1554	-4536
8776	1377	-1209	401	-539	-2699	-2381
8781	1562	-1549	305	-539	-2699	-2381
8786	1714	-2199	502	-539	-2699	-2381
8791	1848	-3147	920	-539	-2699	-2381
8796	1870	-4073	1537	-539	-2699	-2381
8801	1783	-4760	2209	-539	-2699	-2381
8806	1621	-4401	2711	-91	-477	278
8811	1588	-3730	2937	-91	-477	278
8816	1805	-3388	2820	-91	-477	278
8821	1876	-3751	2572	-91	-477	278
8826	1706	-4622	2554	-91	-477	278
8831	1623	-5322	2934	-91	-477	278
8836	1615	-5786	3471	-91	-477	278
8841	1508	-6179	3865	629	1773	4467
8846	1588	-6221	3822	629	1773	4467
8851	1722	-6219	3451	629	1773	4467
8856	1939	-6296	3263	629	1773	4467
8861	2410	-6570	3310	629	1773	4467
8866	2399	-6660	3846	629	1773	4467
8871	2490	-6500	4388	-379	5979	8749
8876	2692	-6042	4668	-379	5979	8749
8881	2890	-5465	4394	-379	5979	8749
8886	3143	-4871	3789	-379	5979	8749
8891	3415	-4410	3328	-379	5979	8749
8896	3716	-3925	2686	-379	5979	8749
8901	3891	-3153	2183	-3238	6410	13127
8906	4422	-2641	1386	-3238	6410	13127
8911	4551	-2068	854	-3238	6410	13127
8916	4315	-1511	464	-3238	6410	13127
8921	3425	-518	140	-3238	6410	13127
8926	3098	19	-112	-3238	6410	13127
8931	2994	-35	-94	-4444	3090	14274
8936	3000	-42	-107	-4444	3090	14274
8941	2985	-37	-90	-4444	3090	14274
8946	2994	-39	-84	-4444	3090	14274
8951	2992	-38	-76	-4444	3090	14274
8956	2985	-36	-77	-4444	3090	14274
8961	2990	-43	-92	-4582	-1031	14539
8966	2989	-34	-88	-4582	-1031	14539
8971	2987	-49	-91	-4582	-1031	14539
8976	2982	-40	-100	-4582	-1031	14539
8981	2991	-38	-100	-4582	-1031	14539
8986	2992	-40	-102	-4582	-1031	14539
8991	2996	-35	-99	-4582	-1031	14539
8996	2993	-35	-89	-3692	-4576	13773
9001	2994	-28	-84	-3692	-4576	13773
9006	2996	-25	-106	-3692	-4576	13773
9011	2991	-22	-100	-3692	-4576	13773
9016	3002	-17	-87	-3692	-4576	13773
9021	2997	-23	-99	-3692	-4576	13773
9026	2984	-23	-94	-2187	-6882	12762
9031	2991	-16	-108	-2187	-6882	12762
9036	2982	-22	-114	-2187	-6882	12762
9041	2992	-19	-111	-2187	-6882	12762
9046	2989	-3	-118	-2187	-6882	12762
9051	2979	-10	-109	-2187	-6882	12762
9056	2978	-7	-110	-374	-7771	12264
9061	2973	1	-128	-374	-7771	12264
9066	2978	2	-131	-374	-7771	12264
9071	2958	-4	-131	-374	-7771	12264
9076	2959	4	-121	-374	-7771	12264
9081	2956	-4	-127	-374	-7771	12264
9086	2952	6	-147	-28247	-7039	8842
9091	2942	9	-154	-28247	-7039	8842
9096	2937	-5	-150	-28247	-7039	8842
9101	2918	8	-159	-28247	-7039	8842
9106	2909	4	-159	-28247	-7039	8842
9111	3908	-13985	-7079	-28247	-7039	8842
9116	859	-9368	-3867	7790	3793	1039
9121	-365	1188	778	7790	3793	1039
9126	576	362	243	7790	3793	1039
9131	-153	396	2392	7790	3793	1039
9136	-478	437	998	7790	3793	1039
9141	-1359	1818	3182	7790	3793	1039
9146	-1601	1509	1325	7790	3793	1039
9151	-744	2399	-618	-4082	124	-512
9156	-94	974	-3096	-4082	124	-512
9161	-329	-852	-4366	-4082	124	-512
9166	-509	-1430	-5164	-4082	124	-512
9171	-401	-733	-4672	-4082	124	-512
9176	-474	174	-3545	-4082	124	-512
9181	-605	486	-2951	-2157	1489	241
9186	-623	455	-2670	-2157	1489	241
9191	-554	286	-2233	-2157	1489	241
9196	-425	58	-1508	-2157	1489	241
9201	-221	-272	-652	-2157	1489	241
9206	21	-564	-228	-2157	1489	241
9211	165	-587	-503	-3040	1278	1641
9216	145	-253	-1314	-3040	1278	1641
9221	218	107	-2057	-3040	1278	1641
9226	267	319	-2549	-3040	1278	1641
9231	213	316	-2854	-3040	1278	1641
9236	243	355	-2802	-3040	1278	1641
9241	302	447	-2455	-4277	1349	2059
9246	269	408	-1982	-4277	1349	2059
9251	262	433	-1531	-4277	1349	2059
9256	258	474	-1176	-4277	1349	2059
9261	268	522	-1005	-4277	1349	2059
9266	215	752	-1046	-4277	1349	2059
9271	216	1080	-1218	-1241	908	1309
9276	247	1476	-1527	-1241	908	1309
9281	403	1787	-1824	-1241	908	1309
9286	474	1846	-1867	-1241	908	1309
9291	573	1626	-1718	-1241	908	1309
9296	851	1377	-1167	-1241	908	1309
9301	928	1402	-1024	-1241	908	1309
9306	1059	1554	-979	-2634	1482	1624
9311	1113	1680	-1129	-2634	1482	1624
9316	1021	1718	-1557	-2634	1482	1624
9321	867	1769	-1918	-2634	1482	1624
9326	670	1744	-2172	-2634	1482	1624
9331	742	1698	-2094	-2634	1482	1624
9336	841	1704	-1807	-1317	639	2034
9341	963	1748	-1543	-1317	639	2034
9346	1036	1856	-1391	-1317	639	2034
9351	1086	2094	-1343	-1317	639	2034
9356	1059	2351	-1361	-1317	639	2034
9361	993	2548	-1416	-1317	639	2034
9366	999	2754	-1524	-286	747	264
9371	1131	3022	-1456	-286	747	264
9376	1326	3211	-1340	-286	747	264
9381	1354	2931	-1271	-286	747	264
9386	1301	2542	-1333	-286	747	264
9391	1251	2569	-1494	-286	747	264
9396	1291	3176	-1685	660	-627	-2891
9401	1535	4085	-1958	660	-627	-2891
9406	1682	4868	-2395	660	-627	-2891
9411	1601	5206	-2812	660	-627	-2891
9416	1646	5323	-2891	660	-627	-2891
9421	1759	5290	-2774	660	-627	-2891
9426	1899	5190	-2696	1304	-3583	-7855
9431	2240	5345	-2737	1304	-3583	-7855
9436	2274	5927	-3168	1304	-3583	-7855
9441	2440	6729	-3715	1304	-3583	-7855
9446	2776	7402	-4199	1304	-3583	-7855
9451	3081	7329	-4452	1304	-3583	-7855
9456	3321	6626	-4272	1304	-3583	-7855
9461	3631	5463	-3723	-3125	-5973	-11065
9466	4021	4314	-3050	-3125	-5973	-11065
9471	4154	3192	-2317	-3125	-5973	-11065
9476	4102	2305	-1621	-3125	-5973	-11065
9481	3959	1802	-1300	-3125	-5973	-11065
9486	4090	1407	-678	-3125	-5973	-11065
9491	2719	291	-290	-5001	-2716	-12574
9496	2294	29	-118	-5001	-2716	-12574
9501	2271	-102	-159	-5001	-2716	-12574
9506	2274	-58	-123	-5001	-2716	-12574
9511	2258	-77	-154	-5001	-2716	-12574
9516	2253	-59	-164	-5001	-2716	-12574
9521	2253	-45	-151	-5031	1323	-12650
9526	2245	-45	-160	-5031	1323	-12650
9531	2243	-42	-161	-5031	1323	-12650
9536	2239	-35	-161	-5031	1323	-12650
9541	2234	-28	-158	-5031	1323	-12650
9546	2239	-19	-145	-5031	1323	-12650
9551	2239	-22	-170	-4164	4962	-11831
9556	2235	-9	-163	-4164	4962	-11831
9561	2235	-6	-160	-4164	4962	-11831
9566	2233	12	-183	-4164	4962	-11831
9571	2233	7	-174	-4164	4962	-11831
9576	2234	9	-156	-4164	4962	-11831
9581	2240	17	-177	-2731	7436	-10341
9586	2238	29	-177	-2731	7436	-10341
9591	2245	21	-166	-2731	7436	-10341
9596	2244	20	-163	-2731	7436	-10341
9601	2255	22	-173	-2731	7436	-10341
9606	2248	32	-180	-2731	7436	-10341
9611	2260	31	-159	-2731	7436	-10341
9616	2254	30	-177	-1210	8661	-9437
9621	2257	37	-156	-1210	8661	-9437
9626	2268	41	-155	-1210	8661	-9437
9631	2270	37	-147	-1210	8661	-9437
9636	2271	27	-136	-1210	8661	-9437
9641	2278	30	-146	-1210	8661	-9437
9646	2278	28	-129	291	8871	-9242
9651	2278	22	-139	291	8871	-9242
9656	2283	24	-141	291	8871	-9242
9661	2278	24	-131	291	8871	-9242
9666	2280	29	-128	291	8871	-9242
9671	2277	25	-117	291	8871	-9242
9676	2282	28	-123	1900	9079	-10851
9681	2276	16	-121	1900	9079	-10851
9686	2271	21	-97	1900	9079	-10851
9691	2272	27	-109	1900	9079	-10851
9696	2258	19	-104	1900	9079	-10851
9701	2259	17	-106	1900	9079	-10851
9706	5245	7614	7073	-3769	-132	-940
9711	1699	11194	5970	-3769	-132	-940
9716	1010	-651	567	-3769	-132	-940
9721	-103	-609	-123	-3769	-132	-940
9726	311	-666	-112	-3769	-132	-940
9731	22	362	-86	-3769	-132	-940
9736	-757	-37	-179	-1871	-1871	219
9741	-1285	484	-1911	-1871	-1871	219
9746	-1565	-1202	-271	-1871	-1871	219
9751	-1704	-1410	1708	-1871	-1871	219
9756	-816	755	3579	-1871	-1871	219
9761	-1063	2009	4452	-1871	-1871	219
9766	-868	1178	5386	-1871	-1871	219
9771	-410	183	5720	-2211	2255	798
9776	-574	95	5471	-2211	2255	798
9781	-611	56	5002	-2211	2255	798
9786	-539	-58	4389	-2211	2255	798
9791	-416	36	3494	-2211	2255	798
9796	-312	306	2545	-2211	2255	798
9801	-226	618	2033	507	3254	-1079
9806	-127	768	2107	507	3254	-1079
9811	39	741	2885	507	3254	-1079
9816	194	647	3616	507	3254	-1079
9821	310	627	3973	507	3254	-1079
9826	375	602	4065	507	3254	-1079
9831	387	356	3736	-763	4806	-944
9836	335	31	2957	-763	4806	-944
9841	249	-150	2090	-763	4806	-944
9846	12	-268	1428	-763	4806	-944
9851	-219	-441	1181	-763	4806	-944
9856	-347	-501	1017	-763	4806	-944
9861	-416	-378	929	-2719	5201	18
9866	-525	-282	898	-2719	5201	18
9871	-713	-457	983	-2719	5201	18
9876	-888	-694	955	-2719	5201	18
9881	-909	-642	754	-2719	5201	18
9886	-906	-377	459	-2719	5201	18
9891	-878	-87	277	-149	3070	-89
9896	-946	-68	183	-149	3070	-89
9901	-1115	-140	-77	-149	3070	-89
9906	-1141	-398	-362	-149	3070	-89
9911	-1280	-442	-430	-149	3070	-89
9916	-1348	-424	-546	-149	3070	-89
9921	-1531	-391	-546	-149	3070	-89
9926	-1603	-565	-432	-703	2105	-282
9931	-1745	-534	-264	-703	2105	-282
9936	-1758	-438	-76	-703	2105	-282
9941	-1661	-388	90	-703	2105	-282
9946	-1818	-403	-28	-703	2105	-282
9951	-1839	-618	-222	-703	2105	-282
9956	-1895	-677	-371	-177	1184	56
9961	-1903	-729	-387	-177	1184	56
9966	-1986	-779	-357	-177	1184	56
9971	-2028	-848	-259	-177	1184	56
9976	-1992	-823	-156	-177	1184	56
9981	-1862	-787	-41	-177	1184	56
9986	-1827	-739	14	72	813	-436
9991	-1829	-613	-135	72	813	-436
9996	-1825	-550	-301	72	813	-436
10001	-1872	-575	-454	72	813	-436
10006	-1917	-648	-469	72	813	-436
10011	-1969	-773	-284	72	813	-436
10016	-1994	-869	-98	-256	1056	-48
10021	-1745	-971	49	-256	1056	-48
10026	-1964	-874	59	-256	1056	-48
10031	-2023	-758	-70	-256	1056	-48
10036	-1988	-768	-354	-256	1056	-48
10041	-1929	-787	-603	-256	1056	-48
10046	-1883	-750	-775	115	479	207
10051	-1939	-693	-907	115	479	207
10056	-1862	-659	-832	115	479	207
10061	-1850	-660	-672	115	479	207
10066	-1836	-654	-497	115	479	207
10071	-1823	-1930	348	115	479	207
10076	-2086	-900	-511	115	479	207
10081	-1610	-1258	-575	-787	416	-122
10086	-1847	-636	-418	-787	416	-122
10091	-2006	-371	-429	-787	416	-122
10096	-2011	-413	-487	-787	416	-122
10101	-1986	-507	-399	-787	416	-122
10106	-1935	-665	-314	-787	416	-122
10111	-1813	-755	-351	-849	646	-139
10116	-1858	-685	-426	-849	646	-139
10121	-1853	-664	-450	-849	646	-139
10126	-1852	-794	-389	-849	646	-139
10131	-1833	-844	-366	-849	646	-139
10136	-1860	-794	-406	-849	646	-139
10141	-1884	-734	-494	-1715	1246	-238
10146	-1885	-715	-525	-1715	1246	-238
10151	-1889	-635	-416	-1715	1246	-238
10156	-1849	-551	-204	-1715	1246	-238
10161	-1834	-682	-278	-1715	1246	-238
10166	-1839	-663	-507	-1715	1246	-238
10171	-1853	-581	-680	-1702	1222	-220
10176	-1854	-573	-719	-1702	1222	-220
10181	-1838	-608	-751	-1702	1222	-220
10186	-1826	-650	-741	-1702	1222	-220
10191	-1824	-749	-720	-1702	1222	-220
10196	-1856	-845	-663	-1702	1222	-220
10201	-1894	-855	-729	-1173	1030	-149
10206	-1885	-790	-819	-1173	1030	-149
10211	-1878	-693	-968	-1173	1030	-149
10216	-1867	-694	-1059	-1173	1030	-149
10221	-1824	-719	-1103	-1173	1030	-149
10226	-1802	-666	-1156	-1173	1030	-149
10231	-1785	-597	-1237	-1173	1030	-149
10236	-1806	-773	-1842	-1281	838	24
10241	-1796	-600	-975	-1281	838	24
10246	-1734	-873	-831	-1281	838	24
10251	-1720	-808	-792	-1281	838	24
10256	-1643	-471	-1445	-1281	838	24
10261	-1618	-256	-1301	-1281	838	24
10266	-1617	-253	-1272	-731	473	-393
10271	-1585	-418	-1042	-731	473	-393
10276	-1563	-499	-1175	-731	473	-393
10281	-1458	-457	-1242	-731	473	-393
10286	-1566	-179	-1374	-731	473	-393
10291	-1514	-124	-1481	-731	473	-393
10296	-1553	-225	-1388	-698	422	-12
10301	-1578	-396	-1201	-698	422	-12
10306	-1606	-504	-1123	-698	422	-12
10311	-1640	-621	-1081	-698	422	-12
10316	-1659	-753	-1151	-698	422	-12
10321	-1657	-772	-1268	-698	422	-12
10326	-1612	-641	-1392	186	-31	61
10331	-1576	-615	-1536	186	-31	61
10336	-1601	-481	-1406	186	-31	61
10341	-1625	-412	-1348	186	-31	61
10346	-1620	-385	-1305	186	-31	61
10351	-1575	-366	-1288	186	-31	61
10356	-1563	-476	-1237	-32	132	222
10361	-1586	-433	-1317	-32	132	222
10366	-1558	-445	-1415	-32	132	222
10371	-1577	-412	-1499	-32	132	222
10376	-1583	-533	-1433	-32	132	222
10381	-1620	-629	-1436	-32	132	222
10386	-1622	-666	-1274	-32	132	222
10391	-1561	-461	-1400	-775	-25	-24
10396	-1552	-266	-1469	-775	-25	-24
10401	-1556	-151	-1509	-775	-25	-24
10406	-1548	-133	-1500	-775	-25	-24
10411	-1558	-204	-1521	-775	-25	-24
10416	-1529	-203	-1464	-775	-25	-24
10421	-1548	-94	-1425	-2765	-394	-319
10426	-1547	-168	-1288	-2765	-394	-319
10431	-1642	-487	-1178	-2765	-394	-319
10436	-1637	-199	-1097	-2765	-394	-319
10441	-1641	-542	-2146	-2765	-394	-319
10446	-1754	-270	-1668	-2765	-394	-319
10451	-1740	-90	-989	-2009	-842	-623
10456	-1747	-171	-1022	-2009	-842	-623
10461	-1775	-213	-1044	-2009	-842	-623
10466	-1692	-45	-1237	-2009	-842	-623
10471	-1737	241	-1601	-2009	-842	-623
10476	-1884	314	-1732	-2009	-842	-623
10481	-1727	243	-1590	-2977	-1795	-1262
10486	-1728	53	-1528	-2977	-1795	-1262
10491	-1655	-191	-1413	-2977	-1795	-1262
10496	-1591	-215	-1542	-2977	-1795	-1262
10501	-1685	-157	-1357	-2977	-1795	-1262
10506	-1849	-328	-906	-2977	-1795	-1262
10511	-1765	-525	-752	-2134	-1172	-389
10516	-1669	-572	-703	-2134	-1172	-389
10521	-1500	-719	-947	-2134	-1172	-389
10526	-1798	-460	-1061	-2134	-1172	-389
10531	-1880	-509	-1182	-2134	-1172	-389
10536	-1911	-297	-1408	-2134	-1172	-389
10541	-1794	-117	-996	-2134	-1172	-389
10546	-1779	-65	-924	-2014	-1035	-380
10551	-1683	-29	-925	-2014	-1035	-380
10556	-1736	-55	-879	-2014	-1035	-380
10561	-1901	-136	-880	-2014	-1035	-380
10566	-1853	-157	-787	-2014	-1035	-380
10571	-1820	1611	-996	-2014	-1035	-380
10576	-1698	222	-1089	-207	-1905	-2541
10581	-1720	761	-1397	-207	-1905	-2541
10586	-1663	324	-1463	-207	-1905	-2541
10591	-1743	461	-1352	-207	-1905	-2541
10596	-1666	-165	-1311	-207	-1905	-2541
10601	-1678	-253	-1205	-207	-1905	-2541
10606	-1883	-275	-1163	-1066	-1611	-704
10611	-2081	-262	-1091	-1066	-1611	-704
10616	-2133	-358	-865	-1066	-1611	-704
10621	-2095	-310	-515	-1066	-1611	-704
10626	-2114	-640	-714	-1066	-1611	-704
10631	-2112	-621	-520	-1066	-1611	-704
10636	-2104	-633	-592	-1016	-340	1448
10641	-2145	-701	-627	-1016	-340	1448
10646	-2231	-471	-598	-1016	-340	1448
10651	-2273	-304	-572	-1016	-340	1448
10656	-2169	-284	-373	-1016	-340	1448
10661	-2028	-246	-148	-1016	-340	1448
10666	-2026	8	-323	-320	-595	675
10671	-1992	108	-353	-320	-595	675
10676	-1987	132	-281	-320	-595	675
10681	-1998	213	-202	-320	-595	675
10686	-1987	268	-94	-320	-595	675
10691	-2024	183	-120	-320	-595	675
10696	-1959	55	-162	-320	-595	675
10701	-1946	123	-249	-315	-1908	-593
10706	-1769	34	-409	-315	-1908	-593
10711	-1792	199	-701	-315	-1908	-593
10716	-1713	119	-676	-315	-1908	-593
10721	-1747	98	-682	-315	-1908	-593
10726	-1830	126	-711	-315	-1908	-593
10731	-1760	67	-685	-1706	-503	-1827
10736	-1665	151	-783	-1706	-503	-1827
10741	-1603	107	-863	-1706	-503	-1827
10746	-1863	71	-630	-1706	-503	-1827
10751	-1958	93	-491	-1706	-503	-1827
10756	-1937	117	-352	-1706	-503	-1827
10761	-2236	79	-396	-936	-865	-1047
10766	-2149	-150	-423	-936	-865	-1047
10771	-2143	-327	-438	-936	-865	-1047
10776	-2230	-452	-343	-936	-865	-1047
10781	-2124	-398	-154	-936	-865	-1047
10786	-2099	-266	92	-936	-865	-1047
10791	-2048	-258	140	-352	-1038	-92
10796	-2082	-103	49	-352	-1038	-92
10801	-1127	-1429	-305	-352	-1038	-92
10806	-1817	-557	-134	-352	-1038	-92
10811	-2087	-448	237	-352	-1038	-92
10816	-2054	-593	455	-352	-1038	-92
10821	-1986	-573	347	-730	-404	-549
10826	-1905	-369	339	-730	-404	-549
10831	-1980	-119	416	-730	-404	-549
10836	-2048	-136	410	-730	-404	-549
10841	-2022	-209	447	-730	-404	-549
10846	-2057	-322	589	-730	-404	-549
10851	-2095	-398	672	-730	-404	-549
10856	-2062	-550	724	-68	8	-251
10861	-2066	-712	766	-68	8	-251
10866	-2059	-760	737	-68	8	-251
10871	-2070	-659	481	-68	8	-251
10876	-2038	-581	301	-68	8	-251
10881	-2036	-473	84	-68	8	-251
10886	-2014	-468	-58	-84	-106	-197
10891	-2008	-402	133	-84	-106	-197
10896	-1997	-389	290	-84	-106	-197
10901	-2010	-499	356	-84	-106	-197
10906	-1975	-544	405	-84	-106	-197
10911	-1888	-555	425	-84	-106	-197
10916	-2007	-574	328	219	-396	-188
10921	-1925	-570	260	219	-396	-188
10926	-1944	-515	196	219	-396	-188
10931	-1945	-482	168	219	-396	-188
10936	-1946	-442	107	219	-396	-188
10941	-1939	-438	112	219	-396	-188
10946	-1932	-442	249	-279	-110	-196
10951	-1943	-463	381	-279	-110	-196
10956	-1944	-510	395	-279	-110	-196
10961	-1945	-601	338	-279	-110	-196
10966	-1944	-651	274	-279	-110	-196
10971	-1940	-646	283	-279	-110	-196
10976	-1943	-618	315	-71	-229	-327
10981	-1921	-537	274	-71	-229	-327
10986	-1835	-499	230	-71	-229	-327
10991	-1833	-406	301	-71	-229	-327
10996	-1848	-377	378	-71	-229	-327
11001	-1914	-466	325	-71	-229	-327
11006	-1940	-762	347	-71	-229	-327
11011	-1961	-698	320	-217	-9	-279
11016	-1884	-574	367	-217	-9	-279
11021	-1856	-521	341	-217	-9	-279
11026	-1834	-570	335	-217	-9	-279
11031	-1858	-569	338	-217	-9	-279
11036	-1860	-588	330	-217	-9	-279
11041	-1885	-577	320	-289	35	-74
11046	-1881	-584	345	-289	35	-74
11051	-1925	-651	324	-289	35	-74
11056	-1942	-671	338	-289	35	-74
11061	-1927	-656	364	-289	35	-74
11066	-1912	-652	354	-289	35	-74
11071	-1891	-694	357	-438	12	-295
11076	-1882	-633	233	-438	12	-295
11081	-1838	-674	297	-438	12	-295
11086	-1873	-636	352	-438	12	-295
11091	-1854	-664	316	-438	12	-295
11096	-1858	-634	281	-438	12	-295
11101	-1867	-655	290	-316	111	-65
11106	-1905	-729	360	-316	111	-65
11111	-1920	-755	378	-316	111	-65
11116	-1906	-720	379	-316	111	-65
11121	-1879	-699	364	-316	111	-65
11126	-1840	-694	339	-316	111	-65
11131	-1838	-713	302	-242	21	-43
11136	-1876	-759	310	-242	21	-43
11141	-1881	-737	328	-242	21	-43
11146	-1848	-710	410	-242	21	-43
11151	-1836	-625	367	-242	21	-43
11156	-1825	-651	343	-242	21	-43
11161	-1864	-698	308	-242	21	-43
11166	-1875	-739	224	-198	31	-74
11171	-1904	-774	234	-198	31	-74
11176	-1914	-770	244	-198	31	-74
11181	-1928	-787	257	-198	31	-74
11186	-1923	-803	256	-198	31	-74
11191	-1907	-792	260	-198	31	-74
11196	-1887	-763	277	-311	81	-20
11201	-1876	-780	253	-311	81	-20
11206	-1877	-768	276	-311	81	-20
11211	-1868	-772	259	-311	81	-20
11216	-1853	-737	278	-311	81	-20
11221	-1855	-765	248	-311	81	-20
11226	-1899	-764	245	-117	-45	36
11231	-1886	-768	250	-117	-45	36
11236	-1859	-726	257	-117	-45	36
11241	-1847	-738	284	-117	-45	36
11246	-1853	-778	275	-117	-45	36
11251	-1854	-801	238	-117	-45	36
11256	-1850	-766	249	-103	-112	-209
11261	-1846	-726	245	-103	-112	-209
11266	-1857	-781	233	-103	-112	-209
11271	-1879	-700	326	-103	-112	-209
11276	-1819	-784	293	-103	-112	-209
11281	-1823	-733	280	-103	-112	-209
11286	-1813	-698	246	-89	24	-99
11291	-1840	-763	310	-89	24	-99
11296	-1852	-802	329	-89	24	-99
11301	-1879	-824	336	-89	24	-99
11306	-1872	-807	306	-89	24	-99
11311	-1863	-775	286	-89	24	-99
11316	-1847	-721	265	-89	24	-99
11321	-1822	-708	272	-90	-69	-30
11326	-1822	-719	266	-90	-69	-30
11331	-1821	-715	293	-90	-69	-30
11336	-1817	-733	261	-90	-69	-30
11341	-1834	-806	228	-90	-69	-30
11346	-1857	-867	234	-90	-69	-30
11351	-1884	-894	233	-49	-25	-61
11356	-1866	-815	226	-49	-25	-61
11361	-1847	-741	233	-49	-25	-61
11366	-1855	-725	259	-49	-25	-61
11371	-1892	-740	296	-49	-25	-61
11376	-1909	-758	339	-49	-25	-61
11381	-1902	-772	361	-32	-6	-39
11386	-1888	-761	370	-32	-6	-39
11391	-1875	-775	360	-32	-6	-39
11396	-1894	-877	292	-32	-6	-39
11401	-1903	-907	253	-32	-6	-39
11406	-1878	-892	227	-32	-6	-39
11411	-1877	-830	236	-3	-86	-172
11416	-1859	-778	269	-3	-86	-172
11421	-1804	-710	301	-3	-86	-172
11426	-1790	-719	296	-3	-86	-172
11431	-1791	-757	286	-3	-86	-172
11436	-1791	-795	271	-3	-86	-172
11441	-1792	-787	287	-3	-40	-150
11446	-1790	-828	273	-3	-40	-150
11451	-1815	-863	252	-3	-40	-150
11456	-1823	-866	268	-3	-40	-150
11461	-1828	-832	275	-3	-40	-150
11466	-1825	-811	324	-3	-40	-150
11471	-1837	-794	314	-3	-40	-150
11476	-1823	-805	311	24	65	-74
11481	-1814	-779	323	24	65	-74
11486	-1814	-820	340	24	65	-74
11491	-1809	-889	321	24	65	-74
11496	-1834	-893	288	24	65	-74
11501	-1825	-884	238	24	65	-74
11506	-1827	-908	245	326	-132	-147
11511	-1833	-864	236	326	-132	-147
11516	-1815	-811	257	326	-132	-147
11521	-1802	-758	266	326	-132	-147
11526	-1788	-791	296	326	-132	-147
11531	-1819	-830	319	326	-132	-147
11536	-1811	-829	352	75	98	-48
11541	-1793	-827	370	75	98	-48
11546	-1792	-862	389	75	98	-48
11551	-1805	-883	380	75	98	-48
11556	-1794	-839	341	75	98	-48
11561	-1763	-829	344	75	98	-48
11566	-1750	-837	304	546	-332	-2
11571	-1794	-852	303	546	-332	-2
11576	-1780	-817	250	546	-332	-2
11581	-1785	-833	164	546	-332	-2
11586	-1794	-857	217	546	-332	-2
11591	-1803	-842	243	546	-332	-2
11596	-1783	-827	287	-236	196	-42
11601	-1811	-859	361	-236	196	-42
11606	-1822	-890	452	-236	196	-42
11611	-1841	-917	513	-236	196	-42
11616	-1833	-887	504	-236	196	-42
11621	-1804	-860	447	-236	196	-42
11626	-1787	-860	395	-236	196	-42
11631	-1778	-858	352	108	-96	-4
11636	-1790	-848	318	108	-96	-4
11641	-1776	-853	313	108	-96	-4
11646	-1797	-874	316	108	-96	-4
11651	-1799	-867	347	108	-96	-4
11656	-1798	-851	371	108	-96	-4
11661	-1798	-834	434	88	2	-48
11666	-1802	-828	452	88	2	-48
11671	-1798	-839	459	88	2	-48
11676	-1785	-820	415	88	2	-48
11681	-1790	-801	393	88	2	-48
11686	-1771	-797	395	88	2	-48
11691	-1777	-807	407	-23	23	27
11696	-1793	-807	417	-23	23	27
11701	-1799	-867	420	-23	23	27
11706	-1804	-881	413	-23	23	27
11711	-1797	-836	408	-23	23	27
11716	-1782	-816	375	-23	23	27
11721	-1775	-816	389	-175	47	-8
11726	-1786	-824	396	-175	47	-8
11731	-1789	-804	404	-175	47	-8
11736	-1772	-795	404	-175	47	-8
11741	-1760	-815	386	-175	47	-8
11746	-1791	-834	391	-175	47	-8
11751	-1790	-838	374	11	4	-65
11756	-1787	-819	358	11	4	-65
11761	-1793	-848	353	11	4	-65
11766	-1798	-875	371	11	4	-65
11771	-1795	-846	415	11	4	-65
11776	-1779	-817	399	11	4	-65
11781	-1783	-810	379	11	4	-65
11786	-1784	-811	390	-22	-42	65
11791	-1782	-822	394	-22	-42	65
11796	-1799	-848	399	-22	-42	65
11801	-1793	-828	386	-22	-42	65
11806	-1792	-856	367	-22	-42	65
11811	-1809	-871	383	-22	-42	65
11816	-1800	-864	395	-15	24	-48
11821	-1797	-855	394	-15	24	-48
11826	-1798	-832	399	-15	24	-48
11831	-1774	-804	405	-15	24	-48
11836	-1773	-803	392	-15	24	-48
11841	-1780	-806	394	-15	24	-48
11846	-1778	-842	387	-70	109	15
11851	-1802	-850	392	-70	109	15
11856	-1797	-874	387	-70	109	15
11861	-1803	-884	368	-70	109	15
11866	-1803	-873	386	-70	109	15
11871	-1799	-863	348	-70	109	15
11876	-1792	-867	344	-119	124	-70
11881	-1788	-858	368	-119	124	-70
11886	-1800	-857	365	-119	124	-70
11891	-1791	-840	371	-119	124	-70
11896	-1785	-844	359	-119	124	-70
11901	-1789	-849	365	-119	124	-70
11906	-1784	-852	380	-80	138	-26
11911	-1785	-836	356	-80	138	-26
11916	-1783	-839	349	-80	138	-26
11921	-1787	-827	379	-80	138	-26
11926	-1798	-824	391	-80	138	-26
11931	-1777	-833	414	-80	138	-26
11936	-1793	-836	411	-80	138	-26
11941	-1797	-836	398	-13	5	-62
11946	-1794	-827	372	-13	5	-62
11951	-1809	-846	362	-13	5	-62
11956	-1815	-857	359	-13	5	-62
11961	-1808	-845	363	-13	5	-62
11966	-1820	-811	360	-13	5	-62
11971	-1805	-820	372	-29	4	-26
11976	-1814	-825	362	-29	4	-26
11981	-1798	-822	379	-29	4	-26
11986	-1791	-840	360	-29	4	-26
11991	-1796	-850	378	-29	4	-26
11996	-1787	-850	361	-29	4	-26
12001	-1785	-848	359	4	11	81
12006	-1783	-847	352	4	11	81
12011	-1791	-854	359	4	11	81
12016	-1803	-872	353	4	11	81
12021	-1805	-879	342	4	11	81
12026	-1810	-874	342	4	11	81
12031	-1813	-889	333	36	64	-84
12036	-1805	-857	332	36	64	-84
12041	-1796	-828	331	36	64	-84
12046	-1758	-807	354	36	64	-84
12051	-1751	-807	356	36	64	-84
12056	-1762	-804	374	36	64	-84
12061	-1771	-847	377	-136	84	-102
12066	-1792	-861	355	-136	84	-102
12071	-1808	-851	350	-136	84	-102
12076	-1787	-820	315	-136	84	-102
12081	-1799	-817	324	-136	84	-102
12086	-1803	-827	354	-136	84	-102
12091	-1800	-852	334	-136	84	-102
12096	-1802	-867	326	-70	95	-165
12101	-1798	-839	368	-70	95	-165
12106	-1785	-817	351	-70	95	-165
12111	-1762	-822	347	-70	95	-165
12116	-1781	-821	359	-70	95	-165
12121	-1805	-886	361	-70	95	-165
12126	-1819	-882	369	-96	-25	50
12131	-1809	-864	384	-96	-25	50
12136	-1808	-855	372	-96	-25	50
12141	-1813	-862	352	-96	-25	50
12146	-1794	-841	307	-96	-25	50
12151	-1788	-832	305	-96	-25	50
12156	-1794	-848	359	-100	15	-77
12161	-1814	-851	362	-100	15	-77
12166	-1794	-841	363	-100	15	-77
12171	-1799	-842	360	-100	15	-77
12176	-1807	-886	346	-100	15	-77
12181	-1816	-906	330	-100	15	-77
12186	-1819	-887	328	-77	31	-32
12191	-1810	-883	313	-77	31	-32
12196	-1815	-883	325	-77	31	-32
12201	-1833	-903	334	-77	31	-32
12206	-1827	-878	323	-77	31	-32
12211	-1804	-842	340	-77	31	-32
12216	-1790	-828	339	-38	8	-73
12221	-1794	-826	369	-38	8	-73
12226	-1780	-830	368	-38	8	-73
12231	-1800	-850	353	-38	8	-73
12236	-1798	-848	352	-38	8	-73
12241	-1797	-865	340	-38	8	-73
12246	-1793	-875	337	-38	8	-73
12251	-1807	-902	341	-29	18	7
12256	-1802	-899	340	-29	18	7
12261	-1802	-894	347	-29	18	7
12266	-1800	-859	355	-29	18	7
12271	-1780	-830	349	-29	18	7
12276	-1785	-821	349	-29	18	7
12281	-1797	-835	340	-74	-25	-15
12286	-1783	-836	340	-74	-25	-15
12291	-1780	-843	335	-74	-25	-15
12296	-1769	-873	335	-74	-25	-15
12301	-1785	-900	335	-74	-25	-15
12306	-1780	-899	342	-74	-25	-15
12311	-1767	-887	348	-72	111	-124
12316	-1785	-868	351	-72	111	-124
12321	-1791	-865	353	-72	111	-124
12326	-1794	-865	364	-72	111	-124
12331	-1813	-844	366	-72	111	-124
12336	-1808	-838	364	-72	111	-124
12341	-1806	-834	346	-44	39	56
12346	-1796	-829	335	-44	39	56
12351	-1787	-835	337	-44	39	56
12356	-1797	-869	338	-44	39	56
12361	-1808	-896	346	-44	39	56
12366	-1802	-891	349	-44	39	56
12371	-1794	-896	343	-32	13	123
12376	-1803	-918	329	-32	13	123
12381	-1802	-895	333	-32	13	123
12386	-1788	-873	346	-32	13	123
12391	-1778	-850	340	-32	13	123
12396	-1767	-860	351	-32	13	123
12401	-1766	-850	348	-32	13	123
12406	-1768	-852	355	-58	15	34
12411	-1765	-854	335	-58	15	34
12416	-1769	-862	337	-58	15	34
12421	-1776	-885	348	-58	15	34
12426	-1794	-903	328	-58	15	34
12431	-1803	-887	362	-58	15	34
12436	-1801	-869	353	-32	-52	27
12441	-1815	-866	363	-32	-52	27
12446	-1824	-864	364	-32	-52	27
12451	-1804	-853	353	-32	-52	27
12456	-1794	-854	364	-32	-52	27
12461	-1792	-845	344	-32	-52	27
12466	-1791	-846	348	-100	67	-33
12471	-1783	-846	354	-100	67	-33
12476	-1789	-866	342	-100	67	-33
12481	-1801	-887	353	-100	67	-33
12486	-1804	-883	340	-100	67	-33
12491	-1793	-876	355	-100	67	-33
12496	-1797	-890	352	-22	-19	-26
12501	-1798	-886	352	-22	-19	-26
12506	-1790	-884	364	-22	-19	-26
12511	-1776	-875	340	-22	-19	-26
12516	-1788	-869	334	-22	-19	-26
12521	-1787	-862	339	-22	-19	-26
12526	-1789	-844	330	-79	-5	-49
12531	-1791	-834	348	-79	-5	-49
12536	-1794	-844	337	-79	-5	-49
12541	-1784	-855	345	-79	-5	-49
12546	-1792	-848	345	-79	-5	-49
12551	-1782	-852	341	-79	-5	-49
12556	-1786	-859	331	-79	-5	-49
12561	-1782	-856	341	-70	145	108
12566	-1779	-873	343	-70	145	108
12571	-1772	-864	340	-70	145	108
12576	-1776	-868	347	-70	145	108
12581	-1787	-865	339	-70	145	108
12586	-1785	-850	349	-70	145	108
12591	-1790	-841	338	-48	34	-87
12596	-1795	-836	330	-48	34	-87
12601	-1810	-856	345	-48	34	-87
12606	-1814	-861	326	-48	34	-87
12611	-1805	-866	318	-48	34	-87
12616	-1807	-890	315	-48	34	-87
12621	-1786	-883	344	-47	25	87
12626	-1786	-861	339	-47	25	87
12631	-1787	-866	336	-47	25	87
12636	-1788	-872	354	-47	25	87
12641	-1774	-859	337	-47	25	87
12646	-1786	-862	333	-47	25	87
12651	-1800	-872	339	-94	-8	-7
12656	-1804	-872	321	-94	-8	-7
12661	-1809	-873	324	-94	-8	-7
12666	-1800	-845	333	-94	-8	-7
12671	-1785	-831	346	-94	-8	-7
12676	-1786	-840	350	-94	-8	-7
12681	-1777	-836	343	-18	-40	5
12686	-1773	-843	339	-18	-40	5
12691	-1779	-865	318	-18	-40	5
12696	-1791	-913	328	-18	-40	5
12701	-1816	-935	324	-18	-40	5
12706	-1818	-929	317	-18	-40	5
12711	-1827	-909	322	-18	-40	5
12716	-1820	-902	342	-104	102	-58
12721	-1817	-892	347	-104	102	-58
12726	-1800	-868	330	-104	102	-58
12731	-1793	-843	343	-104	102	-58
12736	-1783	-819	361	-104	102	-58
12741	-1770	-809	356	-104	102	-58
12746	-1770	-822	334	-45	2	-36
12751	-1781	-845	339	-45	2	-36
12756	-1796	-888	340	-45	2	-36
12761	-1813	-906	330	-45	2	-36
12766	-1832	-930	304	-45	2	-36
12771	-1830	-936	303	-45	2	-36
12776	-1816	-916	290	-68	33	24
12781	-1804	-891	306	-68	33	24
12786	-1799	-875	312	-68	33	24
12791	-1773	-861	336	-68	33	24
12796	-1779	-847	331	-68	33	24
12801	-1773	-840	344	-68	33	24
12806	-1779	-839	339	-6	-50	11
12811	-1782	-842	347	-6	-50	11
12816	-1798	-871	338	-6	-50	11
12821	-1803	-888	332	-6	-50	11
12826	-1818	-917	336	-6	-50	11
12831	-1823	-899	329	-6	-50	11
12836	-1813	-891	330	-39	13	-86
12841	-1816	-867	331	-39	13	-86
12846	-1798	-841	342	-39	13	-86
12851	-1785	-833	329	-39	13	-86
12856	-1779	-831	337	-39	13	-86
12861	-1779	-847	354	-39	13	-86
12866	-1796	-865	338	-39	13	-86
12871	-1800	-876	334	26	14	53
12876	-1790	-872	337	26	14	53
12881	-1792	-867	344	26	14	53
12886	-1797	-878	358	26	14	53
12891	-1787	-870	349	26	14	53
12896	-1779	-866	351	26	14	53
12901	-1790	-868	343	-47	17	-48
12906	-1787	-840	330	-47	17	-48
12911	-1796	-831	338	-47	17	-48
12916	-1794	-826	343	-47	17	-48
12921	-1800	-831	324	-47	17	-48
12926	-1795	-845	324	-47	17	-48
12931	-1790	-855	329	-64	7	-23
12936	-1788	-866	349	-64	7	-23
12941	-1771	-856	346	-64	7	-23
12946	-1761	-867	350	-64	7	-23
12951	-1766	-880	332	-64	7	-23
12956	-1787	-890	334	-64	7	-23
12961	-1811	-893	328	-25	32	-62
12966	-1808	-881	334	-25	32	-62
12971	-1815	-862	331	-25	32	-62
12976	-1803	-851	340	-25	32	-62
12981	-1800	-842	344	-25	32	-62
12986	-1787	-813	357	-25	32	-62
12991	-1779	-811	354	-40	14	-11
12996	-1780	-837	341	-40	14	-11
13001	-1810	-880	351	-40	14	-11
13006	-1812	-904	334	-40	14	-11
13011	-1815	-887	325	-40	14	-11
13016	-1811	-886	319	-40	14	-11
13021	-1806	-871	340	-40	14	-11
13026	-1802	-860	346	-56	5	5
13031	-1782	-840	344	-56	5	5
13036	-1763	-825	339	-56	5	5
13041	-1763	-829	349	-56	5	5
13046	-1766	-837	331	-56	5	5
13051	-1780	-849	337	-56	5	5
13056	-1787	-858	344	-26	33	-39
13061	-1800	-875	331	-26	33	-39
13066	-1811	-888	333	-26	33	-39
