time	accelerometer_x	accelerometer_y	accelerometer_z	gyroscope_x	gyroscope_y	gyroscope_z
1001	53	-1041	1422	56	-870	-38
1006	68	-795	1661	56	-870	-38
1011	-249	-910	1349	56	-870	-38
1016	-217	-888	1325	56	-870	-38
1021	-24	-782	1279	56	-870	-38
1026	259	-708	1202	385	-1452	216
1031	-157	-780	1483	385	-1452	216
1036	-259	-837	1362	385	-1452	216
1041	7	-762	1326	385	-1452	216
1046	-114	-889	1481	385	-1452	216
1051	-226	-1034	1567	385	-1452	216
1056	-294	-1138	1668	330	-592	557
1061	-310	-1144	1715	330	-592	557
1066	-280	-1085	1714	330	-592	557
1071	-116	-934	1758	330	-592	557
1076	-204	-1038	1834	330	-592	557
1081	-451	-1067	1784	330	-592	557
1086	-162	-1154	1933	330	-592	557
1091	-260	-1052	1693	-525	-1565	1149
1096	-470	-1102	1618	-525	-1565	1149
1101	-544	-585	1392	-525	-1565	1149
1106	-260	-1024	701	-525	-1565	1149
1111	137	-558	775	-525	-1565	1149
1116	271	-588	1394	-525	-1565	1149
1121	295	-721	1922	-992	-1429	207
1126	206	-1018	1926	-992	-1429	207
1131	135	-1188	1831	-992	-1429	207
1136	67	-1150	1753	-992	-1429	207
1141	172	-1195	1873	-992	-1429	207
1146	-172	-1341	1691	-992	-1429	207
1151	-340	-1559	1747	-1942	-1077	14
1156	-267	-1385	1295	-1942	-1077	14
1161	138	-726	1023	-1942	-1077	14
1166	844	-710	588	-1942	-1077	14
1171	1066	-757	1126	-1942	-1077	14
1176	706	-651	1664	-1942	-1077	14
1181	513	-1410	1638	516	-713	1686
1186	446	-1115	2156	516	-713	1686
1191	692	-1118	2735	516	-713	1686
1196	434	-1641	3031	516	-713	1686
1201	37	-2776	2023	516	-713	1686
1206	241	-1972	1488	516	-713	1686
1211	266	-2084	1990	-2224	-913	1399
1216	187	-1349	1500	-2224	-913	1399
1221	179	-1183	1497	-2224	-913	1399
1226	200	-1127	1395	-2224	-913	1399
1231	118	-1538	1634	-2224	-913	1399
1236	336	-1902	1773	-2224	-913	1399
1241	491	-1784	1679	-2224	-913	1399
1246	399	-2451	2899	-2271	-1316	1688
1251	498	-1667	1327	-2271	-1316	1688
1256	942	-1581	1178	-2271	-1316	1688
1261	689	-1453	975	-2271	-1316	1688
1266	559	-1432	676	-2271	-1316	1688
1271	462	-1377	500	-2271	-1316	1688
1276	448	-1555	355	-339	-2208	277
1281	564	-1451	413	-339	-2208	277
1286	490	-1618	409	-339	-2208	277
1291	470	-1544	224	-339	-2208	277
1296	849	-1530	142	-339	-2208	277
1301	1156	-2057	494	-339	-2208	277
1306	1211	-2241	449	-318	-2026	17
1311	1175	-2121	350	-318	-2026	17
1316	1450	-1804	321	-318	-2026	17
1321	1288	-1627	100	-318	-2026	17
1326	852	-1297	-109	-318	-2026	17
1331	654	-1053	-98	-318	-2026	17
1336	433	-855	-318	-1139	-2566	-985
1341	-451	-380	-358	-1139	-2566	-985
1346	-1693	295	167	-1139	-2566	-985
1351	-743	484	219	-1139	-2566	-985
1356	406	-1103	340	-1139	-2566	-985
1361	673	-1134	-361	-1139	-2566	-985
1366	633	-1648	-371	-1624	-2987	-1585
1371	889	-1866	-375	-1624	-2987	-1585
1376	1049	-1539	-52	-1624	-2987	-1585
1381	1127	-1068	101	-1624	-2987	-1585
1386	1219	-701	162	-1624	-2987	-1585
1391	1101	-468	138	-1624	-2987	-1585
1396	1264	-428	-87	-1624	-2987	-1585
1401	917	-385	216	-509	-2698	-3514
1406	888	-649	366	-509	-2698	-3514
1411	899	-763	332	-509	-2698	-3514
1416	1059	-602	306	-509	-2698	-3514
1421	1304	-696	210	-509	-2698	-3514
1426	1618	-1197	346	-509	-2698	-3514
1431	2119	-2007	645	-277	-1315	-1171
1436	2501	-2754	758	-277	-1315	-1171
1441	1831	-2975	1120	-277	-1315	-1171
1446	999	-2620	1169	-277	-1315	-1171
1451	1347	-1883	693	-277	-1315	-1171
1456	1716	-1563	294	-277	-1315	-1171
1461	1840	-2029	70	1796	-873	1790
1466	2261	-3100	156	1796	-873	1790
1471	2426	-4515	625	1796	-873	1790
1476	2179	-5614	1303	1796	-873	1790
1481	2072	-6039	1613	1796	-873	1790
1486	2116	-5917	1543	1796	-873	1790
1491	2110	-5779	1374	691	852	6597
1496	2058	-5818	1114	691	852	6597
1501	2181	-6184	917	691	852	6597
1506	2363	-6539	1155	691	852	6597
1511	2458	-6647	1452	691	852	6597
1516	2620	-6497	1727	691	852	6597
1521	2765	-6447	1776	1282	2111	14057
1526	2954	-6704	1535	1282	2111	14057
1531	2830	-7361	1153	1282	2111	14057
1536	3146	-8053	951	1282	2111	14057
1541	3879	-8656	669	1282	2111	14057
1546	4518	-8347	839	1282	2111	14057
1551	5282	-6956	1140	1282	2111	14057
1556	5630	-4408	416	-1779	1350	16470
1561	5499	-2253	-296	-1779	1350	16470
1566	5247	-1339	-629	-1779	1350	16470
1571	4398	-546	-773	-1779	1350	16470
1576	3211	13	-191	-1779	1350	16470
1581	3267	-38	-162	-1779	1350	16470
1586	3301	-126	-105	-2241	-503	16558
1591	3278	-260	-95	-2241	-503	16558
1596	3301	-112	-132	-2241	-503	16558
1601	3318	-76	-100	-2241	-503	16558
1606	3326	-73	-105	-2241	-503	16558
1611	3342	-60	-134	-2241	-503	16558
1616	3332	-84	-121	-1745	-2436	16196
1621	3305	-90	-125	-1745	-2436	16196
1626	3311	-84	-105	-1745	-2436	16196
1631	3266	-66	-106	-1745	-2436	16196
1636	3278	-63	-133	-1745	-2436	16196
1641	3286	-67	-111	-1745	-2436	16196
1646	3306	-52	-118	-826	-3526	16112
1651	3300	-54	-109	-826	-3526	16112
1656	3288	-59	-132	-826	-3526	16112
1661	3271	-48	-126	-826	-3526	16112
1666	3264	-61	-137	-826	-3526	16112
1671	3276	-61	-136	-826	-3526	16112
1676	3264	-66	-119	226	-3629	16111
1681	3268	-58	-124	226	-3629	16111
1686	3262	-64	-125	226	-3629	16111
1691	3264	-61	-144	226	-3629	16111
1696	3262	-64	-129	226	-3629	16111
1701	3253	-64	-128	226	-3629	16111
1706	3247	-70	-139	226	-3629	16111
1711	3257	-78	-138	1044	-2757	16172
1716	3246	-66	-142	1044	-2757	16172
1721	3236	-72	-139	1044	-2757	16172
1726	3232	-75	-138	1044	-2757	16172
1731	3231	-68	-144	1044	-2757	16172
1736	3234	-76	-152	1044	-2757	16172
1741	3216	-74	-143	-20649	-1782	-8482
1746	3214	-72	-137	-20649	-1782	-8482
1751	3211	-68	-131	-20649	-1782	-8482
1756	2676	474	-202	-20649	-1782	-8482
1761	-12795	1532	250	-20649	-1782	-8482
1766	-442	137	265	-20649	-1782	-8482
1771	1302	0	-516	-896	2599	-2110
1776	300	-295	-1333	-896	2599	-2110
1781	-386	-2239	-396	-896	2599	-2110
1786	-1658	-5738	-1104	-896	2599	-2110
1791	317	-1771	1511	-896	2599	-2110
1796	-351	-54	-1441	-896	2599	-2110
1801	-502	-2308	-2472	-1728	36	-3917
1806	-1434	-1432	-2609	-1728	36	-3917
1811	-1660	177	-3247	-1728	36	-3917
1816	-1580	1098	-2509	-1728	36	-3917
1821	-2080	1272	-1790	-1728	36	-3917
1826	-1258	1143	-739	-1728	36	-3917
1831	-1247	989	-617	614	805	-2730
1836	-1068	1094	-676	614	805	-2730
1841	-356	516	-982	614	805	-2730
1846	-172	-1105	-1556	614	805	-2730
1851	-276	-2250	-1237	614	805	-2730
1856	354	-2252	-390	614	805	-2730
1861	765	-2221	82	614	805	-2730
1866	649	-1734	262	1281	2081	-2998
1871	417	-1110	539	1281	2081	-2998
1876	932	-695	663	1281	2081	-2998
1881	285	-9	294	1281	2081	-2998
1886	511	-121	-50	1281	2081	-2998
1891	962	-1044	-1266	1281	2081	-2998
1896	1407	-1901	-2633	3141	1491	-4322
1901	1560	-2287	-2476	3141	1491	-4322
1906	967	-1964	-1293	3141	1491	-4322
1911	749	-1314	-788	3141	1491	-4322
1916	1020	-875	-411	3141	1491	-4322
1921	1253	-734	-499	3141	1491	-4322
1926	1401	-820	-683	1562	262	-2393
1931	1344	-1202	-276	1562	262	-2393
1936	1287	-2382	391	1562	262	-2393
1941	87	-2774	-370	1562	262	-2393
1946	389	-3734	-811	1562	262	-2393
1951	1332	-3171	-1060	1562	262	-2393
1956	1622	-2755	-497	793	236	-2538
1961	1714	-2670	169	793	236	-2538
1966	2003	-2861	438	793	236	-2538
1971	2170	-2830	522	793	236	-2538
1976	2684	-3025	700	793	236	-2538
1981	3154	-3036	656	793	236	-2538
1986	2894	-2638	203	1050	-2010	-2783
1991	3365	-2664	-271	1050	-2010	-2783
1996	2570	-2678	-456	1050	-2010	-2783
2001	1238	-1576	-161	1050	-2010	-2783
2006	977	-976	-445	1050	-2010	-2783
2011	2144	-1761	-1598	1050	-2010	-2783
2016	2097	-3312	-2191	1050	-2010	-2783
2021	1362	-3477	-782	802	-672	805
2026	1684	-3710	384	802	-672	805
2031	1915	-4371	1283	802	-672	805
2036	1906	-4533	2076	802	-672	805
2041	2067	-4343	2212	802	-672	805
2046	2165	-3967	2042	802	-672	805
2051	2287	-4027	1825	715	1389	3386
2056	2389	-4446	1713	715	1389	3386
2061	2491	-4757	1896	715	1389	3386
2066	2617	-4851	1938	715	1389	3386
2071	2748	-5066	1792	715	1389	3386
2076	2886	-5413	1667	715	1389	3386
2081	3072	-5724	1382	381	3760	8945
2086	3233	-6033	938	381	3760	8945
2091	3504	-6466	1000	381	3760	8945
2096	3626	-6572	1796	381	3760	8945
2101	3796	-6438	2686	381	3760	8945
2106	4248	-6306	2994	381	3760	8945
2111	4594	-5507	3501	-6714	4497	12737
2116	5206	-4882	3390	-6714	4497	12737
2121	5442	-4213	2712	-6714	4497	12737
2126	5270	-3232	1693	-6714	4497	12737
2131	4623	-1653	627	-6714	4497	12737
2136	4220	-1277	205	-6714	4497	12737
2141	3133	-1072	-100	-7709	-1709	13480
2146	2478	-435	-54	-7709	-1709	13480
2151	2209	10	-57	-7709	-1709	13480
2156	2236	-157	30	-7709	-1709	13480
2161	2297	-57	-116	-7709	-1709	13480
2166	2254	-56	-58	-7709	-1709	13480
2171	2266	-55	-68	-7709	-1709	13480
2176	2236	-21	1	-6870	-7329	11419
2181	2242	-32	-109	-6870	-7329	11419
2186	2255	-51	-110	-6870	-7329	11419
2191	2271	-34	-195	-6870	-7329	11419
2196	2297	-70	-98	-6870	-7329	11419
2201	2266	-74	-53	-6870	-7329	11419
2206	2258	-83	-117	-5349	-10987	8116
2211	2295	-45	-114	-5349	-10987	8116
2216	2291	-40	-91	-5349	-10987	8116
2221	2289	-38	-112	-5349	-10987	8116
2226	2279	-63	-113	-5349	-10987	8116
2231	2277	-47	-99	-5349	-10987	8116
2236	2280	-35	-95	-3934	-12673	4851
2241	2281	-38	-123	-3934	-12673	4851
2246	2271	-21	-110	-3934	-12673	4851
2251	2274	-33	-105	-3934	-12673	4851
2256	2263	-36	-100	-3934	-12673	4851
2261	2274	-38	-113	-3934	-12673	4851
2266	2267	-28	-110	-3201	-13481	2313
2271	2260	-25	-100	-3201	-13481	2313
2276	2259	-25	-110	-3201	-13481	2313
2281	2259	-35	-120	-3201	-13481	2313
2286	2253	-33	-130	-3201	-13481	2313
2291	2259	-24	-115	-3201	-13481	2313
2296	2248	-34	-115	-2930	-13612	-108
2301	2252	-28	-115	-2930	-13612	-108
2306	2246	-18	-112	-2930	-13612	-108
2311	2253	-20	-115	-2930	-13612	-108
2316	2238	-24	-124	-2930	-13612	-108
2321	2234	-26	-114	-2930	-13612	-108
2326	2237	-26	-125	-2930	-13612	-108
2331	2227	-23	-132	25515	-17412	490
2336	2217	-26	-124	25515	-17412	490
2341	2204	-32	-135	25515	-17412	490
2346	2202	-29	-147	25515	-17412	490
2351	2678	737	-4255	25515	-17412	490
2356	3348	2936	-6999	25515	-17412	490
2361	1036	980	-6671	673	3290	620
2366	-2026	1234	-15	673	3290	620
2371	539	4493	-394	673	3290	620
2376	528	-681	1644	673	3290	620
2381	752	82	617	673	3290	620
2386	189	-1917	-1127	673	3290	620
2391	511	-389	-1168	-4234	2275	1407
2396	17	139	-1494	-4234	2275	1407
2401	595	-335	-2480	-4234	2275	1407
2406	453	113	-2447	-4234	2275	1407
2411	532	615	-1833	-4234	2275	1407
2416	381	1137	-1079	-4234	2275	1407
2421	367	1495	-664	-6798	3116	1418
2426	426	1532	-282	-6798	3116	1418
2431	686	1394	-46	-6798	3116	1418
2436	645	1147	-213	-6798	3116	1418
2441	208	1304	-516	-6798	3116	1418
2446	77	1515	-602	-6798	3116	1418
2451	355	1372	-682	-10680	708	3184
2456	727	1191	-1010	-10680	708	3184
2461	896	832	-1187	-10680	708	3184
2466	465	764	-1258	-10680	708	3184
2471	1052	570	-1098	-10680	708	3184
2476	1131	728	-799	-10680	708	3184
2481	1170	1034	-689	-10680	708	3184
2486	1551	2293	-747	-1786	-2095	3945
2491	1105	2511	73	-1786	-2095	3945
2496	2093	2004	106	-1786	-2095	3945
2501	2978	2210	659	-1786	-2095	3945
2506	2976	2457	1028	-1786	-2095	3945
2511	2327	2215	961	-1786	-2095	3945
2516	1755	2026	863	-1854	-1068	4284
2521	1614	2155	695	-1854	-1068	4284
2526	1736	2344	520	-1854	-1068	4284
2531	1981	2596	499	-1854	-1068	4284
2536	2291	2834	719	-1854	-1068	4284
2541	2548	3103	790	-1854	-1068	4284
2546	2792	3421	566	967	85	809
2551	2793	3728	278	967	85	809
2556	2968	4460	536	967	85	809
2561	2664	4740	990	967	85	809
2566	1851	4448	549	967	85	809
2571	1542	4007	338	967	85	809
2576	1581	3595	178	777	244	-1072
2581	1561	3476	325	777	244	-1072
2586	1687	3672	315	777	244	-1072
2591	1801	4172	279	777	244	-1072
2596	1803	4813	357	777	244	-1072
2601	1930	5308	590	777	244	-1072
2606	2173	5742	1081	2290	1105	-7054
2611	2493	5981	1557	2290	1105	-7054
2616	3107	6163	1721	2290	1105	-7054
2621	3517	6400	1412	2290	1105	-7054
2626	3579	6616	668	2290	1105	-7054
2631	3775	6830	-485	2290	1105	-7054
2636	4084	6378	-1339	2290	1105	-7054
2641	4275	5307	-1471	-196	-481	-11206
2646	4343	4614	-1174	-196	-481	-11206
2651	4315	4401	-505	-196	-481	-11206
2656	4211	4614	-32	-196	-481	-11206
2661	4628	5239	169	-196	-481	-11206
2666	5101	5595	152	-196	-481	-11206
2671	5640	5687	-295	-4323	2888	-18314
2676	6073	4102	-276	-4323	2888	-18314
2681	6529	2691	554	-4323	2888	-18314
2686	5466	1387	774	-4323	2888	-18314
2691	4075	-30	-31	-4323	2888	-18314
2696	4388	-248	-276	-4323	2888	-18314
2701	4351	-148	-148	-2469	7143	-17273
2706	4103	-78	-151	-2469	7143	-17273
2711	4073	-86	-107	-2469	7143	-17273
2716	4131	-65	-174	-2469	7143	-17273
2721	4142	-47	-155	-2469	7143	-17273
2726	4139	-48	-97	-2469	7143	-17273
2731	4140	-33	-99	171	8484	-16740
2736	4152	-16	-141	171	8484	-16740
2741	4167	-20	-137	171	8484	-16740
2746	4174	-22	-146	171	8484	-16740
2751	4188	-23	-136	171	8484	-16740
2756	4210	-24	-145	171	8484	-16740
2761	4214	-269	-576	2625	6796	-17176
2766	4222	-52	-76	2625	6796	-17176
2771	4200	-47	-141	2625	6796	-17176
2776	4225	-215	-314	2625	6796	-17176
2781	4212	-61	-114	2625	6796	-17176
2786	4189	-196	-116	2625	6796	-17176
2791	4178	-98	-172	2625	6796	-17176
2796	4218	-117	-80	3935	3228	-18246
2801	4155	-148	-128	3935	3228	-18246
2806	4166	-123	-179	3935	3228	-18246
2811	4133	-128	-124	3935	3228	-18246
2816	4133	-86	-190	3935	3228	-18246
2821	4131	-117	-142	3935	3228	-18246
2826	4119	-120	-114	4137	-1361	-18276
2831	4104	-127	-101	4137	-1361	-18276
2836	4102	-118	-97	4137	-1361	-18276
2841	4100	-104	-113	4137	-1361	-18276
2846	4090	-117	-96	4137	-1361	-18276
2851	4080	-120	-75	4137	-1361	-18276
2856	4076	-110	-71	-6702	-2481	-3089
2861	4045	-117	-65	-6702	-2481	-3089
2866	4046	-104	-59	-6702	-2481	-3089
2871	4042	-103	-68	-6702	-2481	-3089
2876	4036	-105	-50	-6702	-2481	-3089
2881	-27730	-4192	-2914	-6702	-2481	-3089
2886	-3913	6119	-1369	-18330	-3498	1581
2891	-1771	308	161	-18330	-3498	1581
2896	-726	97	20	-18330	-3498	1581
2901	-2562	823	-1816	-18330	-3498	1581
2906	-3078	-812	-2372	-18330	-3498	1581
2911	-62	-267	-3437	-18330	-3498	1581
2916	-948	303	-3849	6554	-7026	1449
2921	-3213	839	-2517	6554	-7026	1449
2926	-2730	1082	-3666	6554	-7026	1449
2931	-1564	-30	-2980	6554	-7026	1449
2936	-1669	-720	-1021	6554	-7026	1449
2941	-964	-1328	1288	6554	-7026	1449
2946	-746	-1802	3131	6554	-7026	1449
2951	-517	-1167	4503	932	4155	1660
2956	-1627	-995	278	932	4155	1660
2961	-2004	1406	8255	932	4155	1660
2966	-1289	1378	7736	932	4155	1660
2971	-897	1151	4715	932	4155	1660
2976	-1136	292	2033	932	4155	1660
2981	-1065	-109	-360	-3820	344	2155
2986	-1152	-463	-1580	-3820	344	2155
2991	-1285	-184	-1852	-3820	344	2155
2996	-1135	588	-1416	-3820	344	2155
3001	-882	887	-534	-3820	344	2155
3006	-827	997	209	-3820	344	2155
3011	-1420	860	947	7392	1759	2672
3016	336	976	1201	7392	1759	2672
3021	-632	1126	1340	7392	1759	2672
3026	-541	945	1432	7392	1759	2672
3031	-960	677	1223	7392	1759	2672
3036	477	545	698	7392	1759	2672
3041	657	457	324	-10307	3301	2155
3046	-932	553	-92	-10307	3301	2155
3051	-1300	1029	-151	-10307	3301	2155
3056	-540	1584	444	-10307	3301	2155
3061	155	1364	678	-10307	3301	2155
3066	95	986	544	-10307	3301	2155
3071	-90	815	625	-305	-4799	3286
3076	748	265	417	-305	-4799	3286
3081	-776	466	-514	-305	-4799	3286
3086	-3783	2085	-1922	-305	-4799	3286
3091	-2628	730	-1698	-305	-4799	3286
3096	-1986	1717	-1597	-305	-4799	3286
3101	376	2036	-1212	-305	-4799	3286
3106	831	2069	-634	1618	523	3847
3111	570	1446	94	1618	523	3847
3116	1106	770	5333	1618	523	3847
3121	1140	533	3569	1618	523	3847
3126	567	1431	1302	1618	523	3847
3131	1131	2395	765	1618	523	3847
3136	1736	3095	676	1555	1255	2562
3141	974	2902	899	1555	1255	2562
3146	1372	2377	81	1555	1255	2562
3151	1197	1856	144	1555	1255	2562
3156	826	1431	99	1555	1255	2562
3161	315	1006	-104	1555	1255	2562
3166	429	694	-329	1268	-114	4158
3171	959	257	-481	1268	-114	4158
3176	714	208	-305	1268	-114	4158
3181	1061	760	-279	1268	-114	4158
3186	1008	1725	-41	1268	-114	4158
3191	1413	1648	446	1268	-114	4158
3196	1401	1414	393	2649	440	2067
3201	1951	1906	247	2649	440	2067
3206	2354	3072	216	2649	440	2067
3211	3172	4049	538	2649	440	2067
3216	2616	5037	633	2649	440	2067
3221	1500	5617	557	2649	440	2067
3226	611	5708	341	-2219	-1372	-1084
3231	726	5190	199	-2219	-1372	-1084
3236	1565	4679	-193	-2219	-1372	-1084
3241	1764	4577	-471	-2219	-1372	-1084
3246	1529	4876	-752	-2219	-1372	-1084
3251	1195	5600	-924	-2219	-1372	-1084
3256	1111	5789	-887	-2219	-1372	-1084
3261	1013	5748	-557	1871	438	-3821
3266	1068	5502	136	1871	438	-3821
3271	1081	5590	1113	1871	438	-3821
3276	1234	5976	2208	1871	438	-3821
3281	1617	6524	2945	1871	438	-3821
3286	1860	6952	2454	1871	438	-3821
3291	2058	7224	1169	-465	-1298	-11258
3296	2355	7698	52	-465	-1298	-11258
3301	2634	7728	-649	-465	-1298	-11258
3306	3134	7309	-923	-465	-1298	-11258
3311	3675	6330	-801	-465	-1298	-11258
3316	4216	5131	-615	-465	-1298	-11258
3321	4229	4049	-272	-2530	1989	-12175
3326	4503	2638	263	-2530	1989	-12175
3331	3718	1511	569	-2530	1989	-12175
3336	3092	916	557	-2530	1989	-12175
3341	2719	393	315	-2530	1989	-12175
3346	2147	-148	58	-2530	1989	-12175
3351	1992	-120	-196	-2002	3771	-13306
3356	1946	-71	-171	-2002	3771	-13306
3361	2464	-197	-143	-2002	3771	-13306
3366	2400	-133	-194	-2002	3771	-13306
3371	2324	-38	-184	-2002	3771	-13306
3376	2179	-24	-188	-2002	3771	-13306
3381	2182	-37	-160	-651	4866	-12783
3386	2153	-78	27	-651	4866	-12783
3391	2231	28	-170	-651	4866	-12783
3396	2244	-17	-153	-651	4866	-12783
3401	2249	-6	-146	-651	4866	-12783
3406	2272	-18	-144	-651	4866	-12783
3411	2280	-7	-126	-651	4866	-12783
3416	2290	-9	-146	617	4954	-12798
3421	2279	-19	-150	617	4954	-12798
3426	2271	-10	-162	617	4954	-12798
3431	2287	-25	-145	617	4954	-12798
3436	2290	-12	-135	617	4954	-12798
3441	2295	-15	-148	617	4954	-12798
3446	2291	-31	-175	1421	3983	-12999
3451	2289	-24	-160	1421	3983	-12999
3456	2265	-65	-122	1421	3983	-12999
3461	2267	-57	-137	1421	3983	-12999
3466	2289	-162	-210	1421	3983	-12999
3471	2284	-42	-181	1421	3983	-12999
3476	2261	-28	-134	2069	2687	-13347
3481	2252	-68	-151	2069	2687	-13347
3486	2248	-51	-139	2069	2687	-13347
3491	2252	-63	-130	2069	2687	-13347
3496	2245	-62	-124	2069	2687	-13347
3501	2247	-59	-128	2069	2687	-13347
3506	2255	-63	-124	2441	832	-13567
3511	2242	-50	-127	2441	832	-13567
3516	2226	-53	-119	2441	832	-13567
3521	2243	-43	-122	2441	832	-13567
3526	2232	-35	-119	2441	832	-13567
3531	2231	-41	-107	2441	832	-13567
3536	2217	-32	-121	-5153	2823	3169
3541	2222	-27	-112	-5153	2823	3169
3546	2215	-25	-110	-5153	2823	3169
3551	680	12015	839	-5153	2823	3169
3556	-5556	3086	3491	-5153	2823	3169
3561	1973	750	-795	-5153	2823	3169
3566	-480	513	-463	-5153	2823	3169
3571	122	544	1466	-1327	-328	1543
3576	1938	2103	953	-1327	-328	1543
3581	3985	3848	209	-1327	-328	1543
3586	3017	5727	-1004	-1327	-328	1543
3591	2390	5405	-2341	-1327	-328	1543
3596	2177	8116	-2998	-1327	-328	1543
3601	1853	7237	-1246	-875	-434	-1545
3606	2136	5570	218	-875	-434	-1545
3611	1858	4099	708	-875	-434	-1545
3616	1563	3291	234	-875	-434	-1545
3621	1354	2613	1115	-875	-434	-1545
3626	1078	1931	456	-875	-434	-1545
3631	705	1864	-88	8545	-894	783
3636	517	1467	293	8545	-894	783
3641	375	1297	296	8545	-894	783
3646	33	792	244	8545	-894	783
3651	-191	578	423	8545	-894	783
3656	-67	448	406	8545	-894	783
3661	103	462	409	13968	1868	891
3666	611	266	380	13968	1868	891
3671	666	225	353	13968	1868	891
3676	574	140	158	13968	1868	891
3681	407	42	-106	13968	1868	891
3686	369	-47	-240	13968	1868	891
3691	295	15	-44	-1911	3189	958
3696	83	41	-126	-1911	3189	958
3701	639	2574	-967	-1911	3189	958
3706	1235	1120	-2010	-1911	3189	958
3711	1876	-344	-1406	-1911	3189	958
3716	1193	1110	-1447	-1911	3189	958
3721	736	1692	-1860	-1911	3189	958
3726	929	1357	-2052	-2277	2571	34
3731	1545	1179	-1782	-2277	2571	34
3736	2262	754	-1722	-2277	2571	34
3741	3007	740	-1894	-2277	2571	34
3746	2447	649	-2470	-2277	2571	34
3751	1876	156	-2648	-2277	2571	34
3756	1566	-156	-2620	-1590	1063	1590
3761	1528	-309	-2660	-1590	1063	1590
3766	1680	67	-2601	-1590	1063	1590
3771	1757	660	-2481	-1590	1063	1590
3776	1863	1507	-2476	-1590	1063	1590
3781	1852	2436	-2858	-1590	1063	1590
3786	1319	3254	-3006	-1082	-1214	-1784
3791	1786	3581	-3310	-1082	-1214	-1784
3796	1787	3319	-3663	-1082	-1214	-1784
3801	1585	2945	-4008	-1082	-1214	-1784
3806	1765	2898	-4386	-1082	-1214	-1784
3811	2014	2840	-4572	-1082	-1214	-1784
3816	2163	2843	-4623	1136	-3860	-3108
3821	2220	2798	-4658	1136	-3860	-3108
3826	2507	2971	-4919	1136	-3860	-3108
3831	2530	3191	-5064	1136	-3860	-3108
3836	2645	3479	-5233	1136	-3860	-3108
3841	2727	3854	-5445	1136	-3860	-3108
3846	2917	4321	-5817	-1165	-10749	-6057
3851	3334	4734	-6294	-1165	-10749	-6057
3856	3793	4528	-6663	-1165	-10749	-6057
3861	4252	3849	-7060	-1165	-10749	-6057
3866	4519	2933	-6727	-1165	-10749	-6057
3871	5049	1889	-5555	-1165	-10749	-6057
3876	5317	1199	-3859	-1165	-10749	-6057
3881	4786	828	-2214	-4659	-11474	-9054
3886	3835	503	-1365	-4659	-11474	-9054
3891	5007	273	-779	-4659	-11474	-9054
3896	3915	143	-169	-4659	-11474	-9054
3901	2517	-44	-86	-4659	-11474	-9054
3906	2532	-68	-61	-4659	-11474	-9054
3911	2577	-66	-61	-6350	-7780	-12301
3916	2582	-38	-213	-6350	-7780	-12301
3921	2579	-86	-64	-6350	-7780	-12301
3926	2542	-78	-122	-6350	-7780	-12301
3931	2480	89	-296	-6350	-7780	-12301
3936	2530	-92	-141	-6350	-7780	-12301
3941	2529	-84	-136	-7234	-2043	-14168
3946	2519	-98	-79	-7234	-2043	-14168
3951	2512	-62	-130	-7234	-2043	-14168
3956	2503	-97	-140	-7234	-2043	-14168
3961	2486	-91	-148	-7234	-2043	-14168
3966	2479	-80	-140	-7234	-2043	-14168
3971	2468	-69	-158	-6692	4316	-13816
3976	2468	-68	-163	-6692	4316	-13816
3981	2460	-49	-167	-6692	4316	-13816
3986	2467	-56	-171	-6692	4316	-13816
3991	2451	-44	-168	-6692	4316	-13816
3996	2450	-22	-186	-6692	4316	-13816
4001	2457	-23	-177	-5095	9156	-11176
4006	2458	-19	-195	-5095	9156	-11176
4011	2462	-13	-184	-5095	9156	-11176
4016	2462	-3	-174	-5095	9156	-11176
4021	2473	6	-207	-5095	9156	-11176
4026	2466	-4	-176	-5095	9156	-11176
4031	2469	6	-180	-5095	9156	-11176
4036	2467	27	-152	-3587	11747	-8496
4041	2461	-8	-206	-3587	11747	-8496
4046	2466	1	-163	-3587	11747	-8496
4051	2468	3	-162	-3587	11747	-8496
4056	2451	7	-147	-3587	11747	-8496
4061	2449	4	-147	-3587	11747	-8496
4066	2457	23	-136	-2156	12947	-6139
4071	2453	18	-130	-2156	12947	-6139
4076	2451	16	-135	-2156	12947	-6139
4081	2447	11	-119	-2156	12947	-6139
4086	2447	3	-126	-2156	12947	-6139
4091	2441	9	-101	-2156	12947	-6139
4096	2429	-4	-105	-2317	-6036	-2154
4101	2420	-5	-108	-2317	-6036	-2154
4106	-10816	-1871	-10880	-2317	-6036	-2154
4111	363	-133	712	-2317	-6036	-2154
4116	738	-883	2824	-2317	-6036	-2154
4121	-24	-216	973	-2317	-6036	-2154
4126	229	-910	2495	-1849	-2963	-1653
4131	123	-944	3573	-1849	-2963	-1653
4136	1496	-328	3204	-1849	-2963	-1653
4141	1741	689	3230	-1849	-2963	-1653
4146	2044	1101	2738	-1849	-2963	-1653
4151	1642	458	4872	-1849	-2963	-1653
4156	1297	-699	5902	-6867	1106	734
4161	1457	-1047	5133	-6867	1106	734
4166	962	-1381	4052	-6867	1106	734
4171	792	-1768	3258	-6867	1106	734
4176	600	-2014	2710	-6867	1106	734
4181	470	-2099	2019	-6867	1106	734
4186	367	-1987	1358	-6867	1106	734
4191	318	-1782	905	-999	-2151	-1240
4196	717	-1061	397	-999	-2151	-1240
4201	944	-507	-231	-999	-2151	-1240
4206	1157	83	-416	-999	-2151	-1240
4211	922	447	-360	-999	-2151	-1240
4216	801	405	-172	-999	-2151	-1240
4221	890	337	28	-2381	-2562	-3073
4226	954	215	387	-2381	-2562	-3073
4231	891	-223	717	-2381	-2562	-3073
4236	883	-746	1242	-2381	-2562	-3073
4241	1331	-876	1140	-2381	-2562	-3073
4246	1251	-983	1065	-2381	-2562	-3073
4251	1342	-1055	956	-254	-1512	-1976
4256	1223	-1124	849	-254	-1512	-1976
4261	1240	-1278	767	-254	-1512	-1976
4266	1491	-1676	743	-254	-1512	-1976
4271	1934	-2417	818	-254	-1512	-1976
4276	1946	-3305	834	-254	-1512	-1976
4281	1252	-3318	986	-798	-1245	-1147
4286	1187	-2888	1202	-798	-1245	-1147
4291	1472	-2496	1333	-798	-1245	-1147
4296	1483	-2379	1361	-798	-1245	-1147
4301	1550	-2466	1499	-798	-1245	-1147
4306	1708	-2834	1125	-798	-1245	-1147
4311	1801	-2886	1926	804	533	1887
4316	1755	-3535	2002	804	533	1887
4321	1788	-4380	2247	804	533	1887
4326	1797	-5192	2476	804	533	1887
4331	1612	-5644	2704	804	533	1887
4336	1672	-5861	2747	804	533	1887
4341	1688	-5683	2824	804	533	1887
4346	2380	-5875	2703	2159	2708	5710
4351	2581	-5849	2694	2159	2708	5710
4356	2753	-5799	2995	2159	2708	5710
4361	2803	-5885	3292	2159	2708	5710
4366	2753	-6094	3689	2159	2708	5710
4371	2937	-6329	3800	2159	2708	5710
4376	2695	-6034	3675	-2449	8183	11012
4381	3673	-6255	3377	-2449	8183	11012
4386	4095	-6286	3354	-2449	8183	11012
4391	4456	-5734	3370	-2449	8183	11012
4396	5024	-4691	3216	-2449	8183	11012
4401	5814	-3742	2901	-2449	8183	11012
4406	6398	-2857	2333	-9028	3263	16392
4411	6211	-1801	1664	-9028	3263	16392
4416	4319	-535	318	-9028	3263	16392
4421	3356	41	-104	-9028	3263	16392
4426	3352	-60	-73	-9028	3263	16392
4431	3407	-39	0	-9028	3263	16392
4436	3361	-311	39	-9155	-6434	15471
4441	3354	-261	-88	-9155	-6434	15471
4446	3457	-97	-40	-9155	-6434	15471
4451	3497	-94	-43	-9155	-6434	15471
4456	3513	-95	-49	-9155	-6434	15471
4461	3522	-75	-45	-9155	-6434	15471
4466	3502	-89	-71	-6545	-12962	10711
4471	3469	-81	-92	-6545	-12962	10711
4476	3452	-53	-89	-6545	-12962	10711
4481	3475	-60	-90	-6545	-12962	10711
4486	3479	-55	-83	-6545	-12962	10711
4491	3500	-75	40	-6545	-12962	10711
4496	3464	-52	-135	-6545	-12962	10711
4501	3436	-251	-23	-4546	-15653	6247
4506	3464	-77	-120	-4546	-15653	6247
4511	3495	-34	-93	-4546	-15653	6247
4516	3472	-45	-110	-4546	-15653	6247
4521	3464	-53	-98	-4546	-15653	6247
4526	3446	-52	-93	-4546	-15653	6247
4531	3449	-56	-101	-3269	-16566	2684
4536	3444	-50	-112	-3269	-16566	2684
4541	3450	-54	-113	-3269	-16566	2684
4546	3443	-42	-102	-3269	-16566	2684
4551	3424	-40	-105	-3269	-16566	2684
4556	3425	-39	-98	-3269	-16566	2684
4561	3421	-35	-96	-2849	-16756	-114
4566	3415	-46	-104	-2849	-16756	-114
4571	3406	-40	-103	-2849	-16756	-114
4576	3407	-29	-104	-2849	-16756	-114
4581	3400	-42	-89	-2849	-16756	-114
4586	3387	-29	-92	-2849	-16756	-114
4591	3384	-45	-99	-2902	5399	-2497
4596	3373	-40	-100	-2902	5399	-2497
4601	3362	-34	-71	-2902	5399	-2497
4606	3345	-39	-78	-2902	5399	-2497
4611	3344	-42	-81	-2902	5399	-2497
4616	-15548	708	3839	-2902	5399	-2497
4621	-2461	-422	94	4045	4589	2792
4626	-823	2069	1443	4045	4589	2792
4631	-1949	-498	-518	4045	4589	2792
4636	-2421	-2027	-1534	4045	4589	2792
4641	-1054	-2373	-2354	4045	4589	2792
4646	650	-3047	-2578	4045	4589	2792
4651	317	-4400	-4497	4045	4589	2792
4656	-1178	-3384	-5655	-4214	1540	-291
4661	-1297	-543	-3864	-4214	1540	-291
4666	-1284	2299	-1986	-4214	1540	-291
4671	-1046	3974	-447	-4214	1540	-291
4676	-1213	4297	1011	-4214	1540	-291
4681	-2007	3392	1590	-4214	1540	-291
4686	-1946	2391	1717	-5716	3824	-462
4691	-1359	1532	424	-5716	3824	-462
4696	-1154	424	202	-5716	3824	-462
4701	-1064	139	-444	-5716	3824	-462
4706	-641	252	-744	-5716	3824	-462
4711	-199	-448	-2031	-5716	3824	-462
4716	-479	-580	-3013	-3663	-487	1647
4721	-607	-132	-3372	-3663	-487	1647
4726	105	623	-3671	-3663	-487	1647
4731	584	1002	-3325	-3663	-487	1647
4736	757	598	-2597	-3663	-487	1647
4741	443	-116	-1761	-3663	-487	1647
4746	437	-367	-1415	-4984	-465	3963
4751	224	-263	-991	-4984	-465	3963
4756	268	-187	-710	-4984	-465	3963
4761	-187	32	-91	-4984	-465	3963
4766	50	301	455	-4984	-465	3963
4771	63	390	594	-4984	-465	3963
4776	870	796	1051	-3269	1725	5338
4781	1706	1016	1280	-3269	1725	5338
4786	2291	1060	1149	-3269	1725	5338
4791	2754	1377	363	-3269	1725	5338
4796	2698	1460	-344	-3269	1725	5338
4801	2177	1898	-962	-3269	1725	5338
4806	1527	2441	-1227	-3269	1725	5338
4811	1236	3056	-1166	108	487	3800
4816	1526	3380	-841	108	487	3800
4821	2143	3535	-431	108	487	3800
4826	2552	3400	-135	108	487	3800
4831	2630	3137	35	108	487	3800
4836	2561	2910	-102	108	487	3800
4841	2412	2882	-458	-2201	-844	2352
4846	2216	3113	-891	-2201	-844	2352
4851	1768	3694	-958	-2201	-844	2352
4856	973	4010	-847	-2201	-844	2352
4861	873	4414	-397	-2201	-844	2352
4866	1497	4270	31	-2201	-844	2352
4871	1989	4083	608	122	142	-1072
4876	2450	4035	691	122	142	-1072
4881	2855	4140	650	122	142	-1072
4886	2834	4682	478	122	142	-1072
4891	1830	5085	-3	122	142	-1072
4896	1910	5196	-306	122	142	-1072
4901	1974	5156	-373	400	363	-3632
4906	2107	4994	-123	400	363	-3632
4911	2208	4925	300	400	363	-3632
4916	2388	4857	612	400	363	-3632
4921	2542	5080	517	400	363	-3632
4926	2951	5804	253	400	363	-3632
4931	2975	6245	-18	2398	-874	-7984
4936	3132	6429	-208	2398	-874	-7984
4941	3164	6281	-327	2398	-874	-7984
4946	3456	5940	-274	2398	-874	-7984
4951	3654	5778	-197	2398	-874	-7984
4956	3933	5623	-87	2398	-874	-7984
4961	4199	5523	-283	2398	-874	-7984
4966	4297	5115	-472	-10100	-506	-13536
4971	4458	4533	-750	-10100	-506	-13536
4976	4691	3953	-943	-10100	-506	-13536
4981	4973	3124	-835	-10100	-506	-13536
4986	4926	2259	-523	-10100	-506	-13536
4991	2995	1006	-179	-10100	-506	-13536
4996	2297	12	-140	-10172	8334	-10942
5001	2177	-43	-144	-10172	8334	-10942
5006	2183	-34	-165	-10172	8334	-10942
5011	2197	-10	-45	-10172	8334	-10942
5016	2160	5	-174	-10172	8334	-10942
5021	2157	25	-167	-10172	8334	-10942
5026	2167	45	-185	-8399	13085	-4895
5031	2170	45	-130	-8399	13085	-4895
5036	2203	74	-122	-8399	13085	-4895
5041	2237	80	-124	-8399	13085	-4895
5046	2259	72	-113	-8399	13085	-4895
5051	2288	30	8	-8399	13085	-4895
5056	2253	60	-61	-8009	13740	1845
5061	2275	47	18	-8009	13740	1845
5066	2142	240	-488	-8009	13740	1845
5071	2206	50	-69	-8009	13740	1845
5076	2218	51	-104	-8009	13740	1845
5084	2185	71	-123	-8009	13740	1845
5086	2195	19	-77	-9243	10957	8360
5091	2195	53	-110	-9243	10957	8360
5096	2188	51	-94	-9243	10957	8360
5101	2184	52	-95	-9243	10957	8360
5106	2191	41	-84	-9243	10957	8360
5111	2189	28	-76	-9243	10957	8360
5116	2191	30	-65	-9243	10957	8360
5121	2187	8	-67	-10581	4316	12884
5126	2186	1	-72	-10581	4316	12884
5131	2199	-14	-62	-10581	4316	12884
5136	2176	-15	-40	-10581	4316	12884
5141	2191	-18	-55	-10581	4316	12884
5146	2213	-52	-69	-10581	4316	12884
5151	2229	-63	-53	-10494	-4484	12579
5156	2231	-55	-68	-10494	-4484	12579
5161	2235	-65	-71	-10494	-4484	12579
5166	2250	-87	-74	-10494	-4484	12579
5171	2258	-86	-77	-10494	-4484	12579
5176	2272	-123	-101	-10494	-4484	12579
5181	2269	-99	-86	-17707	-6604	4977
5186	2259	-181	-57	-17707	-6604	4977
5191	2290	-93	-97	-17707	-6604	4977
5196	2314	-81	-118	-17707	-6604	4977
5201	2311	-71	-114	-17707	-6604	4977
5206	2028	-6438	-2057	-17707	-6604	4977
5211	-1182	-3997	-3207	-2342	1453	-250
5216	-858	-1008	-821	-2342	1453	-250
5221	455	-113	-922	-2342	1453	-250
5226	239	281	-1341	-2342	1453	-250
5231	-14	649	-1477	-2342	1453	-250
5236	-1216	2128	-1345	-2342	1453	-250
5241	-1983	3215	358	-5297	1831	184
5246	-633	2008	-35	-5297	1831	184
5251	-289	1578	-1180	-5297	1831	184
5256	-463	609	-3046	-5297	1831	184
5261	-106	-137	-2836	-5297	1831	184
5266	-102	-588	-2244	-5297	1831	184
5271	-632	-484	-470	-5297	1831	184
5276	174	-18	-1112	-1223	1770	668
5281	132	1196	-1565	-1223	1770	668
5286	118	1753	-2000	-1223	1770	668
5291	201	1880	-2598	-1223	1770	668
5296	273	1350	-2695	-1223	1770	668
5301	441	1139	-2695	-1223	1770	668
5306	419	967	-2234	-6126	862	1237
5311	108	418	-1819	-6126	862	1237
5316	239	524	-1352	-6126	862	1237
5321	420	737	-1020	-6126	862	1237
5326	542	854	-862	-6126	862	1237
5331	88	1116	-632	-6126	862	1237
5336	148	1081	-368	-1813	2379	3849
5341	299	740	-197	-1813	2379	3849
5346	705	354	-192	-1813	2379	3849
5351	1279	93	-382	-1813	2379	3849
5356	1220	140	-581	-1813	2379	3849
5361	984	561	-1135	-1813	2379	3849
5366	869	1019	-806	-7404	219	4994
5371	839	1490	-985	-7404	219	4994
5376	783	1795	-984	-7404	219	4994
5381	23	2206	-843	-7404	219	4994
5386	374	2062	-752	-7404	219	4994
5391	1128	1686	-659	-7404	219	4994
5396	1717	1362	-303	-1399	-71	2170
5401	2941	1470	-154	-1399	-71	2170
5406	3983	2318	124	-1399	-71	2170
5411	3522	3195	472	-1399	-71	2170
5416	1455	2892	-216	-1399	-71	2170
5421	1714	2881	-296	-1399	-71	2170
5426	2248	3010	-320	-1399	-71	2170
5431	2228	3435	-269	-766	340	220
5436	2260	3893	16	-766	340	220
5441	2246	4189	219	-766	340	220
5446	2298	4176	202	-766	340	220
5451	2245	4206	220	-766	340	220
5456	2183	4275	156	-766	340	220
5461	2224	4403	101	1367	223	-1905
5466	2177	4575	-2	1367	223	-1905
5471	2120	4723	-64	1367	223	-1905
5476	2157	4870	-47	1367	223	-1905
5481	2188	5008	23	1367	223	-1905
5486	2248	5098	40	1367	223	-1905
5491	2660	5435	154	1844	189	-6622
5496	2724	5917	100	1844	189	-6622
5501	3059	6459	79	1844	189	-6622
5506	3230	6928	-65	1844	189	-6622
5511	3442	6965	-161	1844	189	-6622
5516	3744	6506	-264	1844	189	-6622
5521	3820	6011	-531	-733	-1933	-11238
5526	3965	5606	-652	-733	-1933	-11238
5531	3954	5245	-791	-733	-1933	-11238
5536	4400	5132	-800	-733	-1933	-11238
5541	4613	4914	-864	-733	-1933	-11238
5546	4768	4362	-869	-733	-1933	-11238
5551	4796	3432	-690	-5135	1185	-15884
5556	5155	2717	-433	-5135	1185	-15884
5561	4969	2272	-213	-5135	1185	-15884
5566	5082	1638	54	-5135	1185	-15884
5571	3979	277	18	-5135	1185	-15884
5576	3326	-74	-199	-5135	1185	-15884
5581	3053	-60	-197	-5135	1185	-15884
5586	3044	41	-250	-3506	5946	-15058
5591	3049	0	217	-3506	5946	-15058
5596	3039	-32	-195	-3506	5946	-15058
5601	3092	-15	-183	-3506	5946	-15058
5606	3118	2	-151	-3506	5946	-15058
5611	3126	9	-139	-3506	5946	-15058
5616	3121	1	-141	-1415	8266	-13916
5621	3111	-1	-136	-1415	8266	-13916
5626	3103	4	-148	-1415	8266	-13916
5631	3099	-1	-134	-1415	8266	-13916
5636	3120	1	-143	-1415	8266	-13916
5641	3140	5	-146	-1415	8266	-13916
5646	3153	3	-156	965	8509	-13671
5651	3150	1	-131	965	8509	-13671
5656	3160	0	-145	965	8509	-13671
5661	3166	-17	-85	965	8509	-13671
5666	3146	-23	-120	965	8509	-13671
5671	3163	-71	-104	965	8509	-13671
5676	3177	5	-199	2364	7039	-14402
5681	3168	-59	-162	2364	7039	-14402
5686	3137	-163	-134	2364	7039	-14402
5691	3119	-111	-167	2364	7039	-14402
5696	3139	-65	-166	2364	7039	-14402
5701	3117	-72	-159	2364	7039	-14402
5706	3096	-86	-154	3685	4181	-15399
5711	3102	-62	-158	3685	4181	-15399
5716	3103	-85	-137	3685	4181	-15399
5721	3094	-89	-129	3685	4181	-15399
5726	3081	-80	-123	3685	4181	-15399
5731	3088	-84	-127	3685	4181	-15399
5736	3071	-73	-137	3685	4181	-15399
5741	3059	-74	-142	-3439	-2188	-1353
5746	3065	-87	-118	-3439	-2188	-1353
5751	3057	-86	-102	-3439	-2188	-1353
5756	3052	-82	-102	-3439	-2188	-1353
5761	2705	3704	-655	-3439	-2188	-1353
5766	-9514	2230	-4117	-3439	-2188	-1353
5771	-396	1251	-2369	1202	-2354	3854
5776	99	-44	-16	1202	-2354	3854
5781	-1327	-3178	-1435	1202	-2354	3854
5786	-4856	2266	-943	1202	-2354	3854
5791	-4242	-34	-1334	1202	-2354	3854
5796	-319	-384	-2225	1202	-2354	3854
5801	-563	220	-706	-649	454	3216
5806	-1649	1163	607	-649	454	3216
5811	-985	1471	1639	-649	454	3216
5816	-1380	606	1787	-649	454	3216
5821	-1245	1445	2306	-649	454	3216
5826	-1424	1245	1848	-649	454	3216
5831	-1177	1514	2285	31	399	2533
5836	-1161	1823	1292	31	399	2533
5841	-1015	1696	334	31	399	2533
5846	-719	1059	-577	31	399	2533
5851	-521	671	-541	31	399	2533
5856	-782	457	-270	31	399	2533
5861	-709	111	94	2931	-974	3614
5866	-342	-24	206	2931	-974	3614
5871	-699	202	-347	2931	-974	3614
5876	-173	482	-564	2931	-974	3614
5881	288	763	-450	2931	-974	3614
5886	33	470	16	2931	-974	3614
5891	726	730	-25	2931	-974	3614
5896	790	854	80	7486	-668	2959
5901	696	956	-51	7486	-668	2959
5906	838	1503	27	7486	-668	2959
5911	1148	2124	-439	7486	-668	2959
5916	2021	3016	-353	7486	-668	2959
5921	2235	2797	-674	7486	-668	2959
5926	1889	2407	-1248	-752	1539	3028
5931	1725	2398	-1094	-752	1539	3028
5936	1752	2455	-979	-752	1539	3028
5941	1950	2332	-1091	-752	1539	3028
5946	2106	1877	-906	-752	1539	3028
5951	2149	1459	-596	-752	1539	3028
5956	1945	1369	-595	-596	1499	2144
5961	2055	1782	-878	-596	1499	2144
5966	2170	2305	-1486	-596	1499	2144
5971	2116	2934	-2008	-596	1499	2144
5976	1904	3307	-2722	-596	1499	2144
5981	1600	3574	-3321	-596	1499	2144
5986	1370	3266	-3393	-1343	166	1758
5991	1130	2765	-2944	-1343	166	1758
5996	1168	2297	-2071	-1343	166	1758
6001	1122	1907	-1263	-1343	166	1758
6006	1176	1564	-688	-1343	166	1758
6011	1533	1496	-409	-1343	166	1758
6016	1724	1817	-464	-381	-428	-668
6021	1761	2530	-821	-381	-428	-668
6026	1780	3088	-1234	-381	-428	-668
6031	1972	3583	-1676	-381	-428	-668
6036	2035	4103	-2139	-381	-428	-668
6041	2013	4709	-2493	-381	-428	-668
6046	1904	5015	-2491	-381	-428	-668
6051	2033	5377	-2347	567	-856	-4116
6056	2177	5621	-1980	567	-856	-4116
6061	2327	5607	-1724	567	-856	-4116
6066	2466	5293	-1591	567	-856	-4116
6071	2711	5015	-1490	567	-856	-4116
6076	3027	5181	-1585	567	-856	-4116
6081	3226	5624	-1745	1397	-4938	-9407
6086	3273	6082	-2203	1397	-4938	-9407
6091	3479	7166	-3180	1397	-4938	-9407
6096	3821	7671	-3936	1397	-4938	-9407
6101	4324	6996	-4492	1397	-4938	-9407
6106	4732	5790	-4335	1397	-4938	-9407
6111	4945	4052	-3565	-6261	-6012	-11412
6116	4813	2665	-2250	-6261	-6012	-11412
6121	3880	1046	-1483	-6261	-6012	-11412
6126	3799	978	-1374	-6261	-6012	-11412
6131	4209	1066	-1084	-6261	-6012	-11412
6136	2232	615	135	-6261	-6012	-11412
6141	1858	44	-266	-6883	-630	-12717
6146	1893	-72	-175	-6883	-630	-12717
6151	1919	-75	-153	-6883	-630	-12717
6156	1963	-35	-132	-6883	-630	-12717
6161	1976	-40	-150	-6883	-630	-12717
6166	1960	-37	-147	-6883	-630	-12717
6171	1947	-34	-123	-6090	4722	-11957
6176	1959	-37	-98	-6090	4722	-11957
6181	1940	-31	-157	-6090	4722	-11957
6186	1952	-2	-136	-6090	4722	-11957
6191	1944	-10	-134	-6090	4722	-11957
6196	1932	3	-154	-6090	4722	-11957
6201	1923	9	-156	-6090	4722	-11957
6206	1920	6	-171	-4617	8142	-9662
6211	1941	17	-151	-4617	8142	-9662
6216	1958	17	-151	-4617	8142	-9662
6221	1972	49	-318	-4617	8142	-9662
6226	2005	-59	-167	-4617	8142	-9662
6231	1993	-80	-207	-4617	8142	-9662
6236	1947	-104	-271	-3606	10592	-7355
6241	1934	14	-126	-3606	10592	-7355
6246	1934	-34	-183	-3606	10592	-7355
6251	1901	9	-176	-3606	10592	-7355
6256	1927	-12	-122	-3606	10592	-7355
6261	1955	-19	-167	-3606	10592	-7355
6266	1944	19	-173	-2455	11671	-5355
6271	1921	20	-172	-2455	11671	-5355
6276	1925	27	-156	-2455	11671	-5355
6281	1938	16	-161	-2455	11671	-5355
6286	1938	8	-139	-2455	11671	-5355
6291	1940	16	-147	-2455	11671	-5355
6296	1923	14	-139	-809	9317	-4261
6301	1932	8	-146	-809	9317	-4261
6306	3657	-590	-4096	-809	9317	-4261
6311	3018	-219	-1693	-809	9317	-4261
6316	2926	274	6	-809	9317	-4261
6321	2628	867	853	-809	9317	-4261
6326	1842	1003	1264	-30270	4045	5567
6331	1520	526	871	-30270	4045	5567
6336	1599	344	542	-30270	4045	5567
6341	1061	7968	7812	-30270	4045	5567
6346	1325	1306	2102	-30270	4045	5567
6351	715	244	3	-30270	4045	5567
6356	1172	225	329	-30270	4045	5567
6361	3417	-2388	672	-4598	187	-3880
6366	-55	-2069	21	-4598	187	-3880
6371	-103	-1318	-653	-4598	187	-3880
6376	-208	-1647	-1281	-4598	187	-3880
6381	-799	-2038	-1072	-4598	187	-3880
6386	-329	-2480	-961	-4598	187	-3880
6391	536	-2892	-1314	-15353	5393	-2686
6396	1350	-2922	-1586	-15353	5393	-2686
6401	573	-2241	-316	-15353	5393	-2686
6406	340	-1280	-239	-15353	5393	-2686
6411	327	-630	-374	-15353	5393	-2686
6416	333	-228	-281	-15353	5393	-2686
6421	364	51	-80	-15192	5285	2542
6426	369	65	-26	-15192	5285	2542
6431	389	72	-145	-15192	5285	2542
6436	381	82	-162	-15192	5285	2542
6441	339	-125	-845	-15192	5285	2542
6446	372	48	-108	-15192	5285	2542
6451	366	26	-122	-15672	999	5687
6456	351	10	-108	-15672	999	5687
6461	342	-1	-139	-15672	999	5687
6466	349	-28	-51	-15672	999	5687
6471	375	-16	-89	-15672	999	5687
6476	391	-63	-87	-15672	999	5687
6481	393	-55	-89	-15619	-4159	3815
6486	398	-70	-96	-15619	-4159	3815
6491	424	-69	-73	-15619	-4159	3815
6496	431	-75	-93	-15619	-4159	3815
6501	443	-86	-107	-15619	-4159	3815
6506	447	-99	-114	-15619	-4159	3815
6511	463	-92	-112	-15619	-4159	3815
6516	460	-95	-106	13268	-28971	-93
6521	479	-108	-127	13268	-28971	-93
6526	479	-108	-120	13268	-28971	-93
6531	481	-96	-135	13268	-28971	-93
6536	-4784	26467	10108	13268	-28971	-93
6541	-2173	-1718	-8997	13268	-28971	-93
6546	-1892	-2772	430	17372	-15882	-83
6551	3627	-30	-1981	17372	-15882	-83
6556	3599	-7676	6034	17372	-15882	-83
6561	5302	2596	7085	17372	-15882	-83
6566	4931	-3219	4643	17372	-15882	-83
6571	1643	-1824	-2176	17372	-15882	-83
6576	1464	-209	3282	11970	-1946	-102
6581	887	4	1650	11970	-1946	-102
6586	613	-2	-1764	11970	-1946	-102
6591	2301	-921	-1807	11970	-1946	-102
6596	2722	-127	-1649	11970	-1946	-102
6601	3057	-399	-1129	11970	-1946	-102
6606	7751	-6139	1552	3100	-10505	-64
6611	-7386	15445	-4141	3100	-10505	-64
6616	-4358	-17	3468	3100	-10505	-64
6621	-2363	-787	3725	3100	-10505	-64
6626	-504	2166	-2539	3100	-10505	-64
6631	-919	970	-891	3100	-10505	-64
6636	-752	651	-1333	-24600	-17252	-76
6641	-1029	910	-2381	-24600	-17252	-76
6646	-1461	813	-2454	-24600	-17252	-76
6651	-761	-613	-3771	-24600	-17252	-76
6656	-2149	4652	-8768	-24600	-17252	-76
6661	-3914	4657	-2992	-24600	-17252	-76
6666	-2347	-3046	-1828	-24600	-17252	-76
6671	-1409	-1671	844	4552	16258	-80
6676	1907	-5543	-500	4552	16258	-80
6681	2145	-7007	1700	4552	16258	-80
6686	139	6624	-9	4552	16258	-80
6691	445	256	-5704	4552	16258	-80
6696	1906	1970	-2655	4552	16258	-80
6701	1228	-514	219	-3902	2675	-83
6706	1375	-3349	1798	-3902	2675	-83
6711	4099	93	-3310	-3902	2675	-83
6716	241	7307	7008	-3902	2675	-83
6721	614	3441	4251	-3902	2675	-83
6726	362	2003	2240	-3902	2675	-83
6731	519	1515	942	-10705	1897	-85
6736	138	2032	910	-10705	1897	-85
6741	-52	1737	751	-10705	1897	-85
6746	46	1592	581	-10705	1897	-85
6751	218	1299	898	-10705	1897	-85
6756	72	835	1361	-10705	1897	-85
6761	159	819	1605	3740	-3296	-5042
6766	113	-558	980	3740	-3296	-5042
6771	192	194	1682	3740	-3296	-5042
6776	241	103	2408	3740	-3296	-5042
6781	43	-673	1193	3740	-3296	-5042
6786	212	-838	409	3740	-3296	-5042
6791	155	-820	2351	2320	-262	-1145
6796	449	619	1140	2320	-262	-1145
6801	171	242	1601	2320	-262	-1145
6806	35	9	1703	2320	-262	-1145
6811	-326	-537	2522	2320	-262	-1145
6816	-107	-773	2171	2320	-262	-1145
6821	-276	-580	2044	2320	-262	-1145
6826	-270	-367	1900	-666	234	1452
6831	-259	-439	1594	-666	234	1452
6836	-173	67	1692	-666	234	1452
6841	-108	-51	1734	-666	234	1452
6846	85	-147	1928	-666	234	1452
6851	99	-346	2121	-666	234	1452
6856	107	-483	2252	558	-405	17
6861	66	-344	2150	558	-405	17
6866	176	-18	1861	558	-405	17
6871	-14	712	1440	558	-405	17
6876	-110	254	2352	558	-405	17
6881	-13	-264	2052	558	-405	17
6886	-77	-226	2063	474	371	-669
6891	15	587	1383	474	371	-669
6896	105	316	2068	474	371	-669
6901	54	-266	2134	474	371	-669
6906	45	-340	2154	474	371	-669
6911	65	-62	1945	474	371	-669
6916	-37	-7	1995	-519	214	749
6921	-99	-84	1891	-519	214	749
6926	-60	-56	1859	-519	214	749
6931	-97	-18	1841	-519	214	749
6936	-68	-31	1871	-519	214	749
6941	56	91	1831	-519	214	749
6946	40	-165	1961	-421	7	-159
6951	28	-119	2030	-421	7	-159
6956	90	32	1944	-421	7	-159
6961	-7	-162	2074	-421	7	-159
6966	42	112	1783	-421	7	-159
6971	-40	-139	2036	-421	7	-159
6976	37	52	1896	-421	7	-159
6981	-4	-14	1959	62	73	65