time	accelerometer_x	accelerometer_y	accelerometer_z	gyroscope_x	gyroscope_y	gyroscope_z	
1	48	-298	1903	2	-80	-27
6	47	-298	1911	-28	3	70
11	48	-299	1899	-28	3	70
16	55	-286	1910	-28	3	70
21	57	-299	1906	-28	3	70
26	55	-293	1901	-28	3	70
31	53	-305	1896	-28	3	70
36	46	-293	1903	-16	0	-105
41	43	-291	1897	-16	0	-105
46	60	-293	1899	-16	0	-105
51	59	-288	1909	-16	0	-105
56	55	-302	1902	-16	0	-105
61	54	-300	1902	-16	0	-105
66	45	-305	1900	6	-14	59
71	54	-290	1905	6	-14	59
76	60	-284	1908	6	-14	59
81	49	-300	1898	6	-14	59
86	57	-293	1890	6	-14	59
91	50	-295	1896	6	-14	59
110	60	-293	1899	6	-14	59
111	52	-302	1907	6	-14	59
116	63	-291	1899	-28	-78	64
121	52	-296	1896	-28	-78	64
126	49	-288	1880	9	-57	8
131	54	-287	1899	9	-57	8
136	53	-291	1906	9	-57	8
141	55	-297	1874	9	-57	8
146	68	-302	1892	9	-57	8
151	44	-289	1893	9	-57	8
156	46	-298	1897	9	-57	8
161	56	-300	1891	-27	36	18
166	62	-299	1905	-27	36	18
171	69	-306	1900	-27	36	18
176	47	-301	1903	-27	36	18
181	56	-298	1910	-27	36	18
186	51	-294	1900	-27	36	18
191	53	-285	1899	-36	-11	74
196	62	-297	1911	-36	-11	74
201	59	-294	1897	-36	-11	74
206	49	-288	1903	-36	-11	74
211	55	-299	1907	-36	-11	74
216	52	-292	1898	-36	-11	74
221	50	-292	1920	-37	32	103
226	66	-294	1899	-37	32	103
231	58	-304	1887	-37	32	103
236	58	-299	1902	-37	32	103
241	52	-294	1884	-37	32	103
246	62	-292	1911	-37	32	103
251	60	-292	1909	-4	11	7
256	56	-293	1897	-4	11	7
261	54	-293	1896	-4	11	7
266	49	-301	1888	-4	11	7
271	53	-292	1892	-4	11	7
276	55	-291	1912	-4	11	7
281	55	-288	1918	10	-21	52
286	59	-293	1901	10	-21	52
291	53	-303	1897	10	-21	52
296	42	-293	1910	10	-21	52
301	49	-287	1896	10	-21	52
306	55	-294	1901	10	-21	52
311	65	-296	1903	10	-21	52
316	56	-302	1904	-35	-54	15
321	53	-300	1888	-35	-54	15
326	53	-295	1907	-35	-54	15
331	47	-286	1897	-35	-54	15
336	63	-300	1887	-35	-54	15
341	53	-305	1898	-35	-54	15
346	60	-297	1896	-33	12	-100
351	45	-295	1904	-33	12	-100
356	61	-290	1892	-33	12	-100
361	54	-293	1909	-33	12	-100
366	54	-295	1921	-33	12	-100
371	53	-302	1905	-33	12	-100
376	48	-306	1903	-9	26	34
381	43	-305	1910	-9	26	34
386	51	-293	1900	-9	26	34
391	56	-290	1905	-9	26	34
396	56	-299	1909	-9	26	34
401	61	-301	1910	-9	26	34
406	56	-297	1899	-23	-25	-130
411	41	-297	1914	-23	-25	-130
416	48	-294	1906	-23	-25	-130
421	63	-288	1913	-23	-25	-130
426	56	-299	1906	-23	-25	-130
431	55	-301	1887	-23	-25	-130
436	57	-296	1898	-49	-12	86
441	52	-299	1906	-49	-12	86
446	55	-290	1890	-49	-12	86
451	60	-289	1902	-49	-12	86
456	53	-293	1893	-49	-12	86
461	61	-294	1898	-49	-12	86
466	59	-299	1904	-49	-12	86
471	54	-292	1899	2	3	40
476	50	-299	1903	2	3	40
481	53	-295	1904	2	3	40
486	53	-301	1893	2	3	40
491	56	-304	1910	2	3	40
496	60	-282	1884	2	3	40
501	52	-290	1899	-33	-7	-32
506	51	-294	1897	-33	-7	-32
511	52	-292	1909	-33	-7	-32
516	53	-296	1887	-33	-7	-32
521	49	-303	1896	-33	-7	-32
526	47	-298	1912	-33	-7	-32
531	57	-295	1902	-45	-32	-10
536	54	-289	1882	-45	-32	-10
541	55	-299	1905	-45	-32	-10
546	55	-297	1906	-45	-32	-10
551	53	-305	1892	-45	-32	-10
556	49	-290	1906	-45	-32	-10
561	52	-298	1920	-63	-17	-133
566	58	-292	1902	-63	-17	-133
571	55	-298	1911	-63	-17	-133
576	56	-295	1907	-63	-17	-133
581	52	-293	1905	-63	-17	-133
586	43	-288	1911	-63	-17	-133
591	57	-284	1891	-76	13	-64
596	59	-287	1917	-76	13	-64
601	61	-295	1904	-76	13	-64
606	60	-302	1908	-76	13	-64
611	53	-310	1893	-76	13	-64
616	55	-305	1901	-76	13	-64
621	53	-286	1902	-76	13	-64
626	61	-292	1905	12	16	42
631	51	-294	1899	12	16	42
636	48	-300	1895	12	16	42
641	52	-293	1902	12	16	42
646	53	-295	1900	12	16	42
651	49	-289	1893	12	16	42
656	60	-294	1913	-20	42	-52
661	55	-296	1908	-20	42	-52
666	54	-297	1890	-20	42	-52
671	56	-305	1905	-20	42	-52
676	50	-293	1910	-20	42	-52
681	46	-295	1910	-20	42	-52
686	55	-298	1906	-11	23	12
691	60	-301	1899	-11	23	12
696	54	-291	1886	-11	23	12
701	54	-302	1909	-11	23	12
706	48	-294	1906	-11	23	12
711	55	-292	1904	-11	23	12
716	56	-299	1901	-65	-2	-80
721	59	-298	1915	-65	-2	-80
726	54	-298	1901	-65	-2	-80
731	43	-298	1910	-65	-2	-80
736	60	-305	1899	-65	-2	-80
741	66	-302	1952	-65	-2	-80
746	68	-287	1906	-79	0	-108
751	55	-291	1878	-79	0	-108
756	54	-309	1912	-79	0	-108
761	50	-292	1921	-79	0	-108
766	60	-296	1909	-79	0	-108
771	59	-293	1901	-79	0	-108
776	58	-288	1907	-79	0	-108
781	50	-302	1900	-24	0	-111
786	54	-300	1901	-24	0	-111
791	60	-303	1909	-24	0	-111
796	56	-298	1896	-24	0	-111
801	58	-293	1892	-24	0	-111
806	56	-297	1888	-24	0	-111
811	46	-292	1891	-25	35	-49
816	46	-298	1902	-25	35	-49
821	45	-294	1905	-25	35	-49
826	52	-294	1898	-25	35	-49
831	58	-300	1897	-25	35	-49
836	50	-292	1909	-25	35	-49
841	55	-298	1909	-9	-40	74
846	49	-299	1900	-9	-40	74
851	47	-294	1902	-9	-40	74
856	58	-293	1901	-9	-40	74
861	51	-305	1904	-9	-40	74
866	55	-296	1884	-9	-40	74
871	49	-299	1902	-35	29	-20
876	47	-294	1897	-35	29	-20
881	63	-293	1901	-35	29	-20
886	63	-291	1904	-35	29	-20
891	56	-302	1903	-35	29	-20
896	49	-298	1908	-35	29	-20
901	57	-301	1909	-4	-1	-5
906	46	-297	1912	-4	-1	-5
911	48	-301	1911	-4	-1	-5
916	63	-289	1898	-4	-1	-5
921	51	-293	1894	-4	-1	-5
926	46	-293	1908	-4	-1	-5
931	48	-291	1907	-4	-1	-5
936	45	-297	1910	-52	18	-128
941	58	-295	1898	-52	18	-128
946	63	-297	1898	-52	18	-128
951	56	-298	1891	-52	18	-128
956	52	-296	1896	-52	18	-128
961	43	-305	1903	-52	18	-128
966	56	-304	1908	-18	-12	43
971	48	-290	1893	-18	-12	43
976	48	-292	1895	-18	-12	43
981	61	-295	1881	-18	-12	43
986	52	-298	1897	-18	-12	43
991	62	-290	1910	-18	-12	43
996	55	-292	1897	-5	-75	61
1001	51	-290	1900	-5	-75	61
1006	59	-296	1910	-5	-75	61
1011	52	-305	1893	-5	-75	61
1016	45	-287	1916	-5	-75	61
1021	45	-300	1906	-5	-75	61
1026	54	-290	1920	-52	-17	-17
1031	58	-299	1909	-52	-17	-17
1036	59	-299	1887	-52	-17	-17
1041	58	-297	1901	-52	-17	-17
1046	54	-297	1903	-52	-17	-17
1051	57	-299	1909	-52	-17	-17
1056	58	-296	1909	-28	-19	-33
1061	57	-290	1905	-28	-19	-33
1066	54	-289	1889	-28	-19	-33
1071	54	-297	1893	-28	-19	-33
1076	46	-293	1910	-28	-19	-33
1081	57	-295	1901	-28	-19	-33
1086	53	-294	1909	-28	-19	-33
1091	69	-296	1903	5	-41	-7
1096	55	-303	1913	5	-41	-7
1101	53	-306	1895	5	-41	-7
1106	51	-292	1899	5	-41	-7
1111	52	-291	1908	5	-41	-7
1116	61	-285	1908	5	-41	-7
1121	55	-300	1884	-24	49	27
1126	46	-300	1897	-24	49	27
1131	50	-292	1895	-24	49	27
1136	45	-302	1902	-24	49	27
1141	54	-294	1903	-24	49	27
1146	52	-297	1902	-24	49	27
1151	64	-297	1903	-53	46	-133
1156	53	-290	1904	-53	46	-133
1161	46	-303	1898	-53	46	-133
1166	60	-296	1895	-53	46	-133
1171	49	-293	1901	-53	46	-133
1176	63	-295	1904	-53	46	-133
1181	54	-299	1906	-30	23	71
1186	60	-297	1898	-30	23	71
1191	53	-303	1898	-30	23	71
1196	53	-293	1895	-30	23	71
1201	54	-299	1902	-30	23	71
1206	59	-304	1912	-30	23	71
1211	48	-306	1892	-37	15	26
1216	56	-304	1900	-37	15	26
1221	51	-292	1902	-37	15	26
1226	52	-298	1910	-37	15	26
1231	45	-293	1897	-37	15	26
1236	53	-298	1902	-37	15	26
1241	57	-298	1908	-37	15	26
1246	50	-298	1899	27	-39	-11
1251	54	-301	1901	27	-39	-11
1256	55	-301	1915	27	-39	-11
1261	53	-302	1907	27	-39	-11
1266	63	-296	1897	27	-39	-11
1271	53	-297	1901	27	-39	-11
1276	51	-299	1910	-96	39	-1
1281	60	-297	1915	-96	39	-1
1286	48	-295	1907	-96	39	-1
1291	54	-295	1900	-96	39	-1
1296	55	-294	1898	-96	39	-1
1301	54	-301	1898	-96	39	-1
1306	45	-304	1903	-36	5	-112
1311	50	-295	1896	-36	5	-112
1316	57	-297	1905	-36	5	-112
1321	60	-293	1906	-36	5	-112
1326	50	-297	1892	-36	5	-112
1331	58	-302	1886	-36	5	-112
1336	51	-294	1911	-48	59	39
1341	55	-291	1901	-48	59	39
1346	59	-294	1894	-48	59	39
1351	54	-297	1902	-48	59	39
1356	48	-304	1891	-48	59	39
1361	45	-304	1900	-48	59	39
1366	43	-295	1889	-47	-21	-128
1371	50	-297	1910	-47	-21	-128
1376	57	-296	1902	-47	-21	-128
1381	51	-295	1893	-47	-21	-128
1386	47	-301	1904	-47	-21	-128
1391	55	-292	1885	-47	-21	-128
1396	55	-293	1908	-47	-21	-128
1401	57	-296	1904	-36	-22	-48
1406	54	-290	1899	-36	-22	-48
1411	56	-294	1918	-36	-22	-48
1416	52	-304	1898	-36	-22	-48
1421	49	-296	1907	-36	-22	-48
1426	52	-294	1901	-36	-22	-48
1431	53	-288	1910	-16	-1	50
1436	57	-301	1898	-16	-1	50
1441	48	-297	1901	-16	-1	50
1446	57	-299	1901	-16	-1	50
1451	50	-301	1907	-16	-1	50
1456	55	-299	1900	-16	-1	50
1461	54	-290	1897	-27	6	-4
1466	59	-292	1897	-27	6	-4
1471	50	-303	1886	-27	6	-4
1476	52	-304	1914	-27	6	-4
1481	50	-299	1904	-27	6	-4
1486	54	-292	1909	-27	6	-4
1491	57	-303	1901	-53	27	29
1496	58	-295	1907	-53	27	29
1501	62	-298	1916	-53	27	29
1506	64	-303	1905	-53	27	29
1511	50	-293	1904	-53	27	29
1516	59	-298	1903	-53	27	29
1521	49	-292	1907	-82	70	-92
1526	59	-291	1908	-82	70	-92
1531	62	-299	1909	-82	70	-92
1536	49	-302	1898	-82	70	-92
1541	43	-296	1903	-82	70	-92
1546	50	-293	1911	-82	70	-92
1551	57	-295	1905	-82	70	-92
1556	58	-300	1902	-27	-2	39
1561	56	-307	1885	-27	-2	39
1566	51	-300	1894	-27	-2	39
1571	46	-293	1908	-27	-2	39
1576	62	-297	1900	-27	-2	39
1581	56	-296	1899	-27	-2	39
1586	45	-299	1901	4	-44	1
1591	50	-293	1899	4	-44	1
1596	55	-300	1892	4	-44	1
1601	47	-295	1907	4	-44	1
1606	43	-289	1892	4	-44	1
1611	55	-297	1901	4	-44	1
1616	56	-293	1894	-21	-8	-61
1621	56	-301	1901	-21	-8	-61
1626	52	-305	1898	-21	-8	-61
1631	53	-300	1910	-21	-8	-61
1636	54	-292	1908	-21	-8	-61
1641	67	-294	1894	-21	-8	-61
1646	65	-302	1909	-10	12	-15
1651	55	-307	1899	-10	12	-15
1656	48	-304	1877	-10	12	-15
1661	58	-290	1910	-10	12	-15
1666	54	-293	1904	-10	12	-15
1671	52	-305	1900	-10	12	-15
1676	59	-304	1900	-61	25	-4
1681	51	-300	1890	-61	25	-4
1686	44	-290	1890	-61	25	-4
1691	58	-297	1908	-61	25	-4
1696	65	-294	1900	-61	25	-4
1701	61	-300	1895	-61	25	-4
1706	51	-299	1900	-61	25	-4
1711	50	-291	1892	-22	33	45
1716	50	-296	1900	-22	33	45
1721	59	-304	1899	-22	33	45
1726	55	-284	1917	-22	33	45
1731	52	-294	1906	-22	33	45
1736	58	-298	1903	-22	33	45
1741	43	-296	1897	-85	29	-146
1746	47	-293	1897	-85	29	-146
1751	55	-287	1905	-85	29	-146
1756	58	-295	1907	-85	29	-146
1761	50	-298	1894	-85	29	-146
1766	43	-303	1901	-85	29	-146
1771	51	-296	1894	-24	26	-8
1776	54	-287	1893	-24	26	-8
1781	53	-290	1900	-24	26	-8
1786	62	-298	1899	-24	26	-8
1791	58	-297	1901	-24	26	-8
1796	53	-296	1896	-24	26	-8
1801	52	-300	1898	-2	-21	71
1806	44	-290	1909	-2	-21	71
1811	62	-300	1890	-2	-21	71
1816	56	-305	1907	-2	-21	71
1821	55	-302	1905	-2	-21	71
1826	58	-303	1905	-2	-21	71
1831	51	-292	1914	-29	-45	-46
1836	51	-291	1899	-29	-45	-46
1841	57	-298	1907	-29	-45	-46
1846	64	-296	1900	-29	-45	-46
1851	58	-296	1911	-29	-45	-46
1856	62	-298	1893	-29	-45	-46
1861	54	-296	1900	-29	-45	-46
1866	50	-297	1906	-78	43	15
1871	55	-302	1905	-78	43	15
1876	57	-297	1893	-78	43	15
1881	56	-300	1908	-78	43	15
1886	48	-300	1904	-78	43	15
1891	49	-294	1900	-78	43	15
1896	53	-295	1906	-72	-7	-133
1901	51	-300	1890	-72	-7	-133
1906	50	-297	1902	-72	-7	-133
1911	51	-302	1899	-72	-7	-133
1916	50	-293	1895	-72	-7	-133
1921	55	-296	1904	-72	-7	-133
1926	57	-302	1908	-8	45	70
1931	55	-300	1896	-8	45	70
1936	55	-296	1900	-8	45	70
1941	56	-303	1897	-8	45	70
1946	47	-293	1912	-8	45	70
1951	49	-297	1910	-8	45	70
1956	56	-294	1905	-8	-21	-172
1961	54	-299	1892	-8	-21	-172
1966	46	-304	1903	-8	-21	-172
1971	48	-305	1907	-8	-21	-172
1976	44	-297	1907	-8	-21	-172
1981	52	-287	1915	-8	-21	-172
1986	58	-290	1907	-40	9	-30
1991	50	-300	1888	-40	9	-30
1996	50	-301	1902	-40	9	-30
2001	53	-292	1906	-40	9	-30
2006	48	-295	1915	-40	9	-30
2011	52	-297	1903	-40	9	-30
2016	53	-294	1889	-40	9	-30
2021	53	-296	1885	-56	-21	21
2026	51	-301	1896	-56	-21	21
2031	56	-299	1898	-56	-21	21
2036	44	-286	1916	-56	-21	21
2041	52	-293	1911	-56	-21	21
2046	57	-296	1906	-56	-21	21
2051	52	-300	1905	-34	3	39
2056	59	-298	1909	-34	3	39
2061	57	-296	1907	-34	3	39
2066	51	-299	1902	-34	3	39
2071	61	-301	1907	-34	3	39
2076	66	-298	1905	-34	3	39
2081	53	-297	1904	-32	-27	50
2086	51	-299	1902	-32	-27	50
2091	51	-293	1903	-32	-27	50
2096	57	-297	1906	-32	-27	50
2101	56	-290	1897	-32	-27	50
2106	57	-297	1902	-32	-27	50
2111	59	-305	1911	-75	47	-105
2116	49	-310	1908	-75	47	-105
2121	52	-294	1904	-75	47	-105
2126	57	-296	1909	-75	47	-105
2131	58	-299	1904	-75	47	-105
2136	54	-302	1903	-75	47	-105
2141	44	-297	1891	-29	16	93
2146	52	-292	1898	-29	16	93
2151	56	-294	1894	-29	16	93
2156	57	-299	1900	-29	16	93
2161	57	-300	1880	-29	16	93
2166	54	-293	1906	-29	16	93
2171	50	-298	1894	-29	16	93
2176	51	-295	1903	-34	51	7
2181	51	-285	1902	-34	51	7
2186	55	-294	1893	-34	51	7
2191	58	-303	1892	-34	51	7
2196	45	-295	1898	-34	51	7
2201	54	-302	1894	-34	51	7
2206	44	-295	1902	-56	-14	-70
2211	54	-299	1906	-56	-14	-70
2216	52	-289	1909	-56	-14	-70
2221	62	-297	1901	-56	-14	-70
2226	51	-307	1898	-56	-14	-70
2231	49	-293	1885	-56	-14	-70
2236	47	-296	1899	-52	0	-7
2241	52	-292	1898	-52	0	-7
2246	54	-298	1910	-52	0	-7
2251	61	-293	1911	-52	0	-7
2256	53	-294	1889	-52	0	-7
2261	54	-299	1906	-52	0	-7
2266	50	-284	1905	-58	26	-86
2271	50	-296	1899	-58	26	-86
2276	63	-301	1909	-58	26	-86
2281	48	-302	1889	-58	26	-86
2286	52	-305	1892	-58	26	-86
2291	53	-302	1902	-58	26	-86
2296	53	-293	1893	-48	37	45
2301	54	-290	1897	-48	37	45
2306	55	-300	1895	-48	37	45
2311	47	-296	1893	-48	37	45
2316	51	-300	1900	-48	37	45
2321	58	-296	1903	-48	37	45
2326	57	-291	1905	-48	37	45
2331	58	-295	1884	-46	5	-131
2336	55	-290	1906	-46	5	-131
2341	47	-297	1893	-46	5	-131
2346	52	-293	1895	-46	5	-131
2351	51	-293	1899	-46	5	-131
2356	52	-295	1911	-46	5	-131
2361	55	-293	1902	-29	20	-42
2366	56	-298	1906	-29	20	-42
2371	55	-297	1904	-29	20	-42
2376	43	-294	1889	-29	20	-42
2381	46	-307	1896	-29	20	-42
2386	54	-299	1901	-29	20	-42
2391	55	-284	1915	-1	12	21
2396	49	-308	1895	-1	12	21
2401	54	-299	1900	-1	12	21
2406	52	-301	1896	-1	12	21
2411	47	-295	1891	-1	12	21
2416	57	-294	1908	-1	12	21
2421	50	-304	1896	-36	10	-26
2426	57	-301	1892	-36	10	-26
2431	54	-301	1896	-36	10	-26
2436	52	-291	1903	-36	10	-26
2441	45	-290	1917	-36	10	-26
2446	55	-291	1904	-36	10	-26
2451	60	-292	1905	-42	20	71
2456	54	-300	1893	-42	20	71
2461	47	-307	1897	-42	20	71
2466	49	-291	1897	-42	20	71
2471	63	-296	1903	-42	20	71
2476	59	-298	1906	-42	20	71
2481	57	-289	1901	-42	20	71
2486	54	-304	1912	-45	46	-99
2491	45	-295	1896	-45	46	-99
2496	51	-296	1900	-45	46	-99
2501	54	-292	1901	-45	46	-99
2506	56	-289	1900	-45	46	-99
2511	54	-299	1899	-45	46	-99
2516	50	-302	1898	-23	-40	83
2521	48	-304	1885	-23	-40	83
2526	55	-299	1896	-23	-40	83
2531	57	-293	1906	-23	-40	83
2536	51	-298	1895	-23	-40	83
2541	56	-293	1907	-23	-40	83
2546	49	-298	1907	-13	6	52
2551	49	-302	1893	-13	6	52
2556	60	-287	1911	-13	6	52
2561	57	-301	1903	-13	6	52
2566	67	-299	1903	-13	6	52
2571	56	-302	1902	-13	6	52
2576	48	-304	1905	-49	-68	-80
2581	44	-296	1909	-49	-68	-80
2586	51	-292	1906	-49	-68	-80
2591	59	-299	1902	-49	-68	-80
2596	51	-293	1895	-49	-68	-80
2601	51	-302	1892	-49	-68	-80
2606	48	-291	1904	-22	-35	18
2611	49	-285	1904	-22	-35	18
2616	53	-294	1903	-22	-35	18
2621	55	-296	1902	-22	-35	18
2626	54	-304	1911	-22	-35	18
2631	51	-291	1905	-22	-35	18
2636	59	-296	1900	-22	-35	18
2641	45	-292	1905	-77	8	-118
2646	53	-294	1914	-77	8	-118
2651	60	-290	1902	-77	8	-118
2656	54	-297	1893	-77	8	-118
2661	51	-299	1888	-77	8	-118
2666	53	-300	1904	-77	8	-118
2671	53	-290	1894	-20	36	14
2676	55	-304	1893	-20	36	14
2681	55	-298	1901	-20	36	14
2686	49	-298	1904	-20	36	14
2691	56	-303	1905	-20	36	14
2696	52	-291	1905	-20	36	14
2701	60	-289	1903	-5	43	-138
2706	57	-299	1909	-5	43	-138
2711	70	-295	1908	-5	43	-138
2716	53	-298	1891	-5	43	-138
2721	51	-296	1896	-5	43	-138
2726	55	-299	1909	-5	43	-138
2731	47	-298	1901	2	-35	-74
2736	62	-290	1894	2	-35	-74
2741	61	-302	1894	2	-35	-74
2746	56	-304	1896	2	-35	-74
2751	56	-292	1908	2	-35	-74
2756	46	-296	1910	2	-35	-74
2761	55	-298	1911	40	46	-8
2766	58	-293	1899	40	46	-8
2771	51	-298	1891	40	46	-8
2776	52	-299	1898	40	46	-8
2781	51	-306	1905	40	46	-8
2786	52	-288	1918	40	46	-8
2791	49	-285	1915	40	46	-8
2796	55	-294	1901	-22	9	-2
2801	61	-301	1904	-22	9	-2
2806	59	-299	1899	-22	9	-2
2811	48	-295	1903	-22	9	-2
2816	54	-295	1909	-22	9	-2
2821	58	-295	1908	-22	9	-2
2826	51	-297	1901	-50	23	37
2831	58	-299	1902	-50	23	37
2836	55	-295	1907	-50	23	37
2841	44	-305	1892	-50	23	37
2846	56	-288	1898	-50	23	37
2851	67	-292	1913	-50	23	37
2856	56	-305	1897	-49	-28	-127
2861	57	-299	1890	-49	-28	-127
2866	54	-296	1897	-49	-28	-127
2871	52	-290	1900	-49	-28	-127
2876	54	-299	1907	-49	-28	-127
2881	59	-297	1907	-49	-28	-127
2886	61	-291	1896	-40	-15	90
2891	63	-296	1903	-40	-15	90
2896	51	-295	1898	-40	-15	90
2901	50	-288	1910	-40	-15	90
2906	62	-300	1914	-40	-15	90
2911	64	-292	1903	-40	-15	90
2916	54	-294	1894	19	9	24
2921	53	-294	1896	19	9	24
2926	48	-298	1905	19	9	24
2931	51	-290	1901	19	9	24
2936	48	-300	1894	19	9	24
2941	48	-294	1902	19	9	24
2946	59	-297	1891	19	9	24
2951	54	-296	1908	4	-25	-39
2956	51	-292	1898	4	-25	-39
2961	50	-297	1899	4	-25	-39
2966	55	-298	1899	4	-25	-39
2971	60	-306	1902	4	-25	-39
2976	53	-309	1899	4	-25	-39
2981	44	-299	1895	-1	16	21
2986	50	-308	1908	-1	16	21
2991	56	-291	1915	-1	16	21
2996	60	-292	1892	-1	16	21
3001	59	-296	1901	-1	16	21
3006	54	-300	1893	-1	16	21
3011	52	-296	1896	-37	-45	-89
3016	57	-296	1909	-37	-45	-89
3021	50	-297	1895	-37	-45	-89
3026	61	-301	1909	-37	-45	-89
3031	58	-292	1915	-37	-45	-89
3036	48	-299	1903	-37	-45	-89
3041	47	-297	1892	-33	-25	55
3046	54	-294	1901	-33	-25	55
3051	54	-290	1914	-33	-25	55
3056	61	-300	1915	-33	-25	55
3061	58	-293	1899	-33	-25	55
3066	56	-300	1885	-33	-25	55
3071	51	-298	1909	-76	16	-83
3076	52	-291	1908	-76	16	-83
3081	59	-292	1895	-76	16	-83
3086	54	-296	1911	-76	16	-83
3091	55	-300	1893	-76	16	-83
3096	58	-299	1902	-76	16	-83
3101	43	-296	1905	-76	16	-83
3106	54	-298	1899	-44	8	108
3111	53	-295	1892	-44	8	108
3116	57	-287	1905	-44	8	108
3121	53	-295	1903	-44	8	108
3126	55	-300	1887	-44	8	108
3131	52	-294	1890	-44	8	108
3136	53	-288	1910	7	-50	27
3141	56	-295	1893	7	-50	27
3146	55	-295	1899	7	-50	27
3151	58	-300	1903	7	-50	27
3156	57	-294	1907	7	-50	27
3161	51	-296	1901	7	-50	27
3166	49	-295	1915	-26	-25	7
3171	59	-304	1900	-26	-25	7
3176	54	-300	1913	-26	-25	7
3181	55	-304	1903	-26	-25	7
3186	47	-294	1886	-26	-25	7
3191	53	-289	1910	-26	-25	7
3196	58	-288	1896	-37	-18	30
3201	63	-300	1901	-37	-18	30
3206	55	-293	1902	-37	-18	30
3211	52	-299	1896	-37	-18	30
3216	52	-300	1903	-37	-18	30
3221	48	-297	1911	-37	-18	30
3226	60	-292	1901	-40	22	-97
3231	57	-292	1907	-40	22	-97
3236	56	-288	1912	-40	22	-97
3241	51	-291	1898	-40	22	-97
3246	56	-295	1899	-40	22	-97
3251	50	-294	1908	-40	22	-97
3256	59	-296	1896	-40	22	-97
3261	55	-300	1898	2	1	102
3266	49	-294	1893	2	1	102
3271	49	-292	1899	2	1	102
3276	46	-294	1903	2	1	102
3281	57	-292	1914	2	1	102
3286	55	-296	1902	2	1	102
3291	59	-288	1901	-65	-44	-48
3296	53	-297	1902	-65	-44	-48
3301	56	-293	1912	-65	-44	-48
3306	50	-298	1890	-65	-44	-48
3311	48	-288	1889	-65	-44	-48
3316	53	-302	1903	-65	-44	-48
3321	53	-303	1891	-32	-21	-37
3326	51	-291	1887	-32	-21	-37
3331	53	-296	1909	-32	-21	-37
3336	49	-288	1909	-32	-21	-37
3341	57	-293	1904	-32	-21	-37
3346	59	-295	1897	-32	-21	-37
3351	47	-305	1902	-10	-31	58
3356	50	-304	1909	-10	-31	58
3361	58	-297	1901	-10	-31	58
3366	60	-300	1900	-10	-31	58
3371	62	-300	1900	-10	-31	58
3376	61	-294	1900	-10	-31	58
3381	58	-296	1899	-13	72	-40
3386	42	-291	1899	-13	72	-40
3391	49	-300	1894	-13	72	-40
3396	50	-293	1901	-13	72	-40
3401	60	-302	1907	-13	72	-40
3406	59	-298	1886	-13	72	-40
3411	46	-295	1889	-13	72	-40
3416	55	-304	1916	-46	23	1
3421	58	-300	1898	-46	23	1
3426	56	-291	1903	-46	23	1
3431	57	-300	1910	-46	23	1
3436	68	-293	1902	-46	23	1
3441	52	-292	1898	-46	23	1
3446	55	-296	1916	-49	36	-128
3451	53	-295	1898	-49	36	-128
3456	53	-293	1895	-49	36	-128
3461	61	-295	1900	-49	36	-128
3466	56	-299	1891	-49	36	-128
3471	46	-302	1899	-49	36	-128
3476	57	-300	1908	-48	25	58
3481	52	-290	1909	-48	25	58
3486	62	-289	1912	-48	25	58
3491	51	-304	1902	-48	25	58
3496	49	-303	1899	-48	25	58
3501	46	-303	1887	-48	25	58
3506	56	-303	1902	-22	-8	56
3511	53	-285	1901	-22	-8	56
3516	59	-297	1911	-22	-8	56
3521	52	-296	1900	-22	-8	56
3526	63	-304	1904	-22	-8	56
3531	54	-300	1889	-22	-8	56
3536	47	-289	1904	-41	-36	-21
3541	51	-296	1902	-41	-36	-21
3546	55	-295	1889	-41	-36	-21
3551	62	-294	1909	-41	-36	-21
3556	49	-302	1889	-41	-36	-21
3561	52	-296	1897	-41	-36	-21
3566	45	-297	1911	-41	-36	-21
3571	52	-296	1917	-20	-49	4
3576	56	-299	1913	-20	-49	4
3581	63	-300	1910	-20	-49	4
3586	55	-307	1892	-20	-49	4
3591	44	-309	1906	-20	-49	4
3596	54	-295	1898	-20	-49	4
3601	52	-304	1898	-24	19	-84
3606	58	-298	1890	-24	19	-84
3611	55	-297	1894	-24	19	-84
3616	54	-297	1891	-24	19	-84
3621	49	-287	1894	-24	19	-84
3626	46	-291	1896	-24	19	-84
3631	56	-300	1914	-56	1	65
3636	62	-293	1901	-56	1	65
3641	54	-294	1886	-56	1	65
3646	49	-297	1913	-56	1	65
3651	48	-291	1890	-56	1	65
3656	49	-297	1918	-56	1	65
3661	55	-296	1909	-36	37	-131
3666	52	-301	1899	-36	37	-131
3671	53	-293	1900	-36	37	-131
3676	48	-295	1895	-36	37	-131
3681	48	-300	1894	-36	37	-131
3686	58	-296	1910	-36	37	-131
3691	57	-292	1896	-37	-51	75
3696	50	-295	1895	-37	-51	75
3701	56	-299	1906	-37	-51	75
3706	46	-301	1907	-37	-51	75
3711	60	-294	1892	-37	-51	75
3716	52	-296	1900	-37	-51	75
3721	57	-302	1902	-37	-51	75
3726	54	-295	1893	-20	-64	43
3731	49	-311	1902	-20	-64	43
3736	49	-302	1900	-20	-64	43
3741	62	-294	1892	-20	-64	43
3746	56	-294	1903	-20	-64	43
3751	58	-295	1897	-20	-64	43
3756	55	-296	1903	-37	-9	-18
3761	53	-302	1902	-37	-9	-18
3766	54	-292	1898	-37	-9	-18
3771	55	-295	1914	-37	-9	-18
3776	54	-299	1898	-37	-9	-18
3781	48	-304	1894	-37	-9	-18
3786	49	-303	1898	-20	0	-23
3791	56	-293	1906	-20	0	-23
3796	47	-298	1910	-20	0	-23
3801	53	-290	1906	-20	0	-23
3806	57	-289	1901	-20	0	-23
3811	48	-298	1906	-20	0	-23
3816	46	-306	1898	-37	2	-86
3821	53	-303	1897	-37	2	-86
3826	48	-294	1913	-37	2	-86
3831	62	-304	1895	-37	2	-86
3836	56	-295	1903	-37	2	-86
3841	51	-302	1902	-37	2	-86
3846	51	-294	1904	-27	-21	106
3851	52	-301	1891	-27	-21	106
3856	60	-286	1902	-27	-21	106
3861	63	-296	1915	-27	-21	106
3866	60	-298	1910	-27	-21	106
3871	56	-295	1894	-27	-21	106
3876	53	-298	1894	-27	-21	106
3881	51	-296	1892	35	-25	-87
3886	58	-296	1913	35	-25	-87
3891	52	-293	1894	35	-25	-87
3896	59	-296	1905	35	-25	-87
3901	53	-311	1896	35	-25	-87
3906	53	-307	1904	35	-25	-87
3911	56	-300	1908	-27	-21	-21
3916	54	-295	1908	-27	-21	-21
3921	63	-296	1913	-27	-21	-21
3926	57	-294	1897	-27	-21	-21
3931	54	-297	1882	-27	-21	-21
3936	50	-301	1895	-27	-21	-21
3941	50	-301	1915	-14	18	-12
3946	61	-296	1891	-14	18	-12
3951	56	-300	1888	-14	18	-12
3956	62	-299	1895	-14	18	-12
3961	47	-307	1909	-14	18	-12
3966	49	-297	1903	-14	18	-12
3971	55	-295	1900	-17	-25	-46
3976	59	-295	1899	-17	-25	-46
3981	59	-295	1893	-17	-25	-46
3986	59	-294	1893	-17	-25	-46
3991	47	-294	1913	-17	-25	-46
3996	59	-293	1896	-17	-25	-46
4001	53	-290	1892	-61	-2	-32
4006	57	-295	1895	-61	-2	-32
4011	64	-295	1889	-61	-2	-32
4016	53	-294	1896	-61	-2	-32
4021	54	-295	1897	-61	-2	-32
4026	50	-295	1897	-61	-2	-32
4031	52	-294	1901	-61	-2	-32
4036	60	-299	1907	-37	-16	-106
4041	56	-296	1917	-37	-16	-106
4046	61	-299	1902	-37	-16	-106
4051	45	-306	1896	-37	-16	-106
4056	50	-296	1898	-37	-16	-106
4061	54	-296	1898	-37	-16	-106
4066	61	-290	1901	-58	-17	68
4071	51	-305	1896	-58	-17	68
4076	50	-298	1886	-58	-17	68
4081	43	-302	1891	-58	-17	68
4086	54	-304	1897	-58	-17	68
4091	51	-290	1905	-58	-17	68
4096	58	-303	1902	-8	-34	72
4101	60	-304	1895	-8	-34	72
4106	59	-295	1911	-8	-34	72
4111	48	-297	1910	-8	-34	72
4116	51	-297	1898	-8	-34	72
4121	59	-295	1909	-8	-34	72
4126	57	-294	1901	-21	-75	-18
4131	61	-303	1910	-21	-75	-18
4136	49	-302	1893	-21	-75	-18
4141	58	-299	1903	-21	-75	-18
4146	51	-300	1911	-21	-75	-18
4151	54	-297	1888	-21	-75	-18
4156	58	-295	1901	-36	9	74
4161	42	-300	1891	-36	9	74
4166	52	-304	1902	-36	9	74
4171	47	-288	1893	-36	9	74
4176	58	-297	1900	-36	9	74
4181	52	-291	1909	-36	9	74
4186	55	-299	1895	-36	9	74
4191	49	-297	1898	-57	25	-95
4196	52	-296	1904	-57	25	-95
4201	52	-296	1911	-57	25	-95
4206	51	-295	1906	-57	25	-95
4211	51	-297	1904	-57	25	-95
4216	59	-293	1887	-57	25	-95
4221	52	-302	1901	-8	12	61
4226	50	-307	1911	-8	12	61
4231	45	-292	1897	-8	12	61
4236	59	-288	1907	-8	12	61
4241	50	-302	1905	-8	12	61
4246	66	-297	1889	-8	12	61
4251	51	-308	1894	-8	45	-56
4256	54	-294	1913	-8	45	-56
4261	51	-298	1904	-8	45	-56
4266	59	-288	1895	-8	45	-56
4271	55	-304	1875	-8	45	-56
4276	54	-303	1903	-8	45	-56
4281	59	-295	1894	-58	-34	-58
4286	53	-293	1889	-58	-34	-58
4291	48	-297	1913	-58	-34	-58
4296	48	-294	1897	-58	-34	-58
4301	53	-300	1905	-58	-34	-58
4306	53	-297	1905	-58	-34	-58
4311	52	-298	1903	13	-24	42
4316	44	-286	1913	13	-24	42
4321	56	-287	1896	13	-24	42
4326	57	-304	1897	13	-24	42
4331	54	-304	1901	13	-24	42
4336	54	-302	1889	13	-24	42
4341	51	-301	1916	13	-24	42
4346	48	-292	1898	2	18	-49
4351	59	-296	1908	2	18	-49
4356	59	-304	1907	2	18	-49
4361	58	-299	1887	2	18	-49
4366	57	-302	1903	2	18	-49
4371	53	-300	1906	2	18	-49
4376	56	-297	1905	-59	43	20
4381	64	-299	1902	-59	43	20
4386	56	-297	1913	-59	43	20
4391	54	-303	1886	-59	43	20
4396	52	-295	1893	-59	43	20
4401	48	-295	1910	-59	43	20
4406	59	-285	1902	-55	-51	-99
4411	58	-296	1901	-55	-51	-99
4416	51	-298	1900	-55	-51	-99
4421	46	-295	1908	-55	-51	-99
4426	48	-293	1900	-55	-51	-99
4431	44	-292	1904	-55	-51	-99
4436	58	-292	1907	-30	39	108
4441	59	-292	1904	-30	39	108
4446	54	-293	1894	-30	39	108
4451	52	-302	1887	-30	39	108
4456	43	-302	1901	-30	39	108
4461	52	-294	1911	-30	39	108
4466	55	-298	1907	-24	-22	-97
4471	52	-302	1897	-24	-22	-97
4476	51	-292	1899	-24	-22	-97
4481	48	-291	1900	-24	-22	-97
4486	53	-302	1890	-24	-22	-97
4491	55	-292	1911	-24	-22	-97
4496	52	-291	1910	-24	-22	-97
4501	58	-298	1892	-33	-21	-30
4506	52	-298	1894	-33	-21	-30
4511	48	-301	1892	-33	-21	-30
4516	53	-301	1892	-33	-21	-30
4521	50	-298	1908	-33	-21	-30
4526	51	-281	1905	-33	-21	-30
4531	59	-294	1913	-29	9	-20
4536	49	-295	1890	-29	9	-20
4541	55	-304	1901	-29	9	-20
4546	50	-299	1910	-29	9	-20
4551	55	-289	1917	-29	9	-20
4556	61	-297	1899	-29	9	-20
4561	53	-296	1900	-9	35	-52
4566	57	-300	1899	-9	35	-52
4571	52	-298	1901	-9	35	-52
4576	55	-300	1898	-9	35	-52
4581	58	-296	1906	-9	35	-52
4586	60	-302	1916	-9	35	-52
4591	61	-293	1900	-34	0	80
4596	45	-290	1906	-34	0	80
4601	44	-296	1906	-34	0	80
4606	53	-294	1896	-34	0	80
4611	56	-297	1921	-34	0	80
4616	56	-305	1909	-34	0	80
4621	56	-300	1901	-46	-18	-111
4626	54	-296	1892	-46	-18	-111
4631	44	-303	1898	-46	-18	-111
4636	57	-299	1882	-46	-18	-111
4641	57	-292	1898	-46	-18	-111
4646	68	-290	1904	-46	-18	-111
4651	61	-294	1903	-46	-18	-111
4656	50	-301	1919	-16	-17	-2
4661	53	-299	1899	-16	-17	-2
4666	53	-298	1896	-16	-17	-2
4671	54	-286	1916	-16	-17	-2
4676	56	-295	1903	-16	-17	-2
4681	49	-300	1909	-16	-17	-2
4686	46	-300	1904	-20	-16	71
4691	54	-300	1908	-20	-16	71
4696	59	-301	1901	-20	-16	71
4701	58	-292	1910	-20	-16	71
4706	50	-297	1892	-20	-16	71
4711	51	-301	1912	-20	-16	71
4716	42	-306	1906	-7	56	-12
4721	53	-299	1907	-7	56	-12
4726	58	-294	1896	-7	56	-12
4731	56	-285	1898	-7	56	-12
4736	49	-297	1910	-7	56	-12
4741	46	-296	1906	-7	56	-12
4746	55	-294	1910	-39	-21	12
4751	53	-301	1889	-39	-21	12
4756	70	-290	1912	-39	-21	12
4761	56	-296	1889	-39	-21	12
4766	59	-300	1903	-39	-21	12
4771	50	-300	1906	-39	-21	12
4776	53	-296	1894	-88	49	-124
4781	67	-303	1914	-88	49	-124
4786	55	-296	1900	-88	49	-124
4791	59	-297	1899	-88	49	-124
4796	54	-300	1900	-88	49	-124
4801	52	-298	1897	-88	49	-124
4806	52	-288	1896	-88	49	-124
4811	46	-297	1900	14	91	65
4816	55	-299	1897	14	91	65
4821	66	-294	1899	14	91	65
4826	56	-302	1902	14	91	65
4831	54	-291	1900	14	91	65
4836	44	-304	1899	14	91	65
4841	46	-292	1904	9	-15	-130
4846	55	-290	1894	9	-15	-130
4851	53	-301	1901	9	-15	-130
4856	54	-301	1898	9	-15	-130
4861	47	-301	1897	9	-15	-130
4866	55	-298	1904	9	-15	-130
4871	51	-297	1904	-34	2	-43
4876	61	-299	1902	-34	2	-43
4881	53	-305	1903	-34	2	-43
4886	52	-301	1891	-34	2	-43
4891	55	-293	1901	-34	2	-43
4896	50	-298	1916	-34	2	-43
4901	64	-297	1906	-40	-12	12
4906	52	-293	1891	-40	-12	12
4911	59	-295	1900	-40	-12	12
4916	49	-306	1901	-40	-12	12
4921	44	-294	1899	-40	-12	12
4926	56	-295	1897	-40	-12	12
4931	57	-298	1897	-26	-21	-51
4936	52	-309	1896	-26	-21	-51
4941	52	-299	1897	-26	-21	-51
4946	56	-292	1897	-26	-21	-51
4951	54	-300	1893	-26	-21	-51
4956	51	-293	1906	-26	-21	-51
4961	63	-308	1906	-26	-21	-51
4966	57	-296	1895	-38	-4	58
4971	53	-312	1897	-38	-4	58
4976	56	-295	1897	-38	-4	58
4981	58	-285	1897	-38	-4	58
4986	54	-288	1894	-38	-4	58
4991	62	-295	1894	-38	-4	58
4996	56	-295	1892	-65	10	-112
5001	52	-295	1896	-65	10	-112
5006	41	-296	1907	-65	10	-112
5011	44	-303	1903	-65	10	-112
5016	61	-286	1912	-65	10	-112
5021	61	-305	1892	-65	10	-112
5026	55	-301	1902	-7	-31	64
5031	48	-299	1891	-7	-31	64
5036	49	-302	1899	-7	-31	64
5041	51	-297	1909	-7	-31	64
5046	60	-293	1907	-7	-31	64
5051	60	-299	1906	-7	-31	64
5056	54	-298	1891	-16	-50	24
5061	51	-290	1891	-16	-50	24
5066	46	-301	1901	-16	-50	24
5071	57	-295	1907	-16	-50	24
5076	50	-287	1910	-16	-50	24
5081	58	-298	1903	-16	-50	24
5086	58	-296	1898	-28	-58	7
5091	48	-298	1898	-28	-58	7
5096	50	-303	1908	-28	-58	7
5101	54	-291	1897	-28	-58	7
5106	60	-293	1891	-28	-58	7
5111	60	-301	1886	-28	-58	7
5116	62	-292	1900	-28	-58	7
5121	47	-295	1903	-29	-4	21
5126	55	-299	1895	-29	-4	21
5131	60	-293	1904	-29	-4	21
5136	59	-303	1906	-29	-4	21
5141	56	-300	1892	-29	-4	21
5146	48	-297	1904	-29	-4	21
5151	53	-297	1904	-24	-12	-86
5156	54	-290	1910	-24	-12	-86
5161	53	-294	1891	-24	-12	-86
5166	52	-301	1891	-24	-12	-86
5171	52	-301	1906	-24	-12	-86
5176	53	-296	1896	-24	-12	-86
5181	54	-297	1907	-30	5	67
5186	51	-292	1896	-30	5	67
5191	58	-291	1903	-30	5	67
5196	50	-301	1901	-30	5	67
5201	50	-298	1898	-30	5	67
5206	49	-295	1895	-30	5	67
5211	50	-283	1910	-53	59	-90
5216	50	-294	1900	-53	59	-90
5221	53	-293	1903	-53	59	-90
5226	61	-300	1906	-53	59	-90
5231	57	-296	1889	-53	59	-90
5236	41	-300	1905	-53	59	-90
5241	52	-302	1896	12	-39	-23
5246	52	-302	1914	12	-39	-23
5251	61	-290	1904	12	-39	-23
5256	52	-300	1899	12	-39	-23
5261	62	-303	1905	12	-39	-23
5266	42	-297	1895	12	-39	-23
5271	49	-289	1895	12	-39	-23
5276	58	-294	1891	-27	39	50
5281	58	-292	1901	-27	39	50
5286	47	-297	1900	-27	39	50
5291	49	-299	1900	-27	39	50
5296	51	-295	1907	-27	39	50
5301	51	-292	1899	-27	39	50
5306	51	-297	1901	-19	75	-12
5311	53	-293	1907	-19	75	-12
5316	56	-297	1884	-19	75	-12
5321	53	-295	1893	-19	75	-12
5326	64	-299	1901	-19	75	-12
5331	47	-285	1900	-19	75	-12
5336	48	-303	1910	-20	18	-1
5341	59	-294	1902	-20	18	-1
5346	53	-302	1906	-20	18	-1
5351	50	-289	1911	-20	18	-1
5356	44	-292	1902	-20	18	-1
5361	52	-290	1904	-20	18	-1
5366	55	-291	1903	-49	-18	-127
5371	54	-298	1904	-49	-18	-127
5376	45	-293	1904	-49	-18	-127
5381	42	-298	1906	-49	-18	-127
5386	45	-302	1896	-49	-18	-127
5391	46	-300	1898	-49	-18	-127
5396	56	-298	1890	-52	25	77
5401	55	-284	1905	-52	25	77
5406	56	-303	1907	-52	25	77
5411	50	-294	1910	-52	25	77
5416	55	-293	1895	-52	25	77
5421	55	-285	1917	-52	25	77
5426	58	-296	1881	-52	25	77
5431	56	-293	1901	-27	36	-169
5436	60	-299	1890	-27	36	-169
5441	58	-302	1913	-27	36	-169
5446	49	-298	1907	-27	36	-169
5451	50	-299	1894	-27	36	-169
5456	51	-297	1909	-27	36	-169
5461	51	-295	1900	-13	-27	-33
5466	52	-298	1910	-13	-27	-33
5471	51	-297	1894	-13	-27	-33
5476	52	-299	1902	-13	-27	-33
5481	59	-292	1901	-13	-27	-33
5486	55	-303	1892	-13	-27	-33
5491	59	-292	1895	-49	25	20
5496	59	-295	1898	-49	25	20
5501	49	-294	1902	-49	25	20
5506	48	-289	1900	-49	25	20
5511	53	-296	1905	-49	25	20
5516	55	-298	1914	-49	25	20
5521	54	-293	1890	-64	-29	-27
5526	57	-296	1900	-64	-29	-27
5531	59	-296	1900	-64	-29	-27
5536	53	-300	1910	-64	-29	-27
5541	63	-291	1897	-64	-29	-27
5546	55	-292	1916	-64	-29	-27
5551	49	-304	1911	-59	-12	86
5556	48	-295	1900	-59	-12	86
5561	53	-301	1904	-59	-12	86
5569	49	-292	1889	-59	-12	86
5571	55	-296	1901	-59	-12	86
5576	55	-297	1889	-59	-12	86
5581	38	-294	1885	-59	-12	86
5586	46	-296	1900	-53	-50	-121
5591	56	-306	1899	-53	-50	-121
5596	48	-300	1906	-53	-50	-121
5601	64	-293	1912	-53	-50	-121
5606	65	-301	1879	-53	-50	-121
5611	51	-294	1898	-53	-50	-121
5616	53	-298	1905	-42	3	72
5621	55	-289	1914	-42	3	72
5626	65	-299	1899	-42	3	72
5631	57	-307	1905	-42	3	72
5636	55	-296	1906	-42	3	72
5641	49	-297	1908	-42	3	72
5646	53	-293	1900	-16	-41	31
5651	52	-297	1913	-16	-41	31
5656	59	-297	1904	-16	-41	31
5661	47	-293	1888	-16	-41	31
5666	45	-294	1905	-16	-41	31
5671	50	-297	1906	-16	-41	31
5676	51	-294	1895	-10	-22	-34
5681	54	-298	1902	-10	-22	-34
5686	61	-290	1896	-10	-22	-34
5691	61	-304	1917	-10	-22	-34
5696	49	-296	1889	-10	-22	-34
5701	48	-298	1905	-10	-22	-34
5706	48	-286	1902	-41	-4	-51
5711	52	-293	1891	-41	-4	-51
5716	64	-302	1903	-41	-4	-51
5721	62	-299	1883	-41	-4	-51
5726	43	-300	1908	-41	-4	-51
5731	54	-297	1893	-41	-4	-51
5736	54	-296	1922	-41	-4	-51
5741	57	-304	1893	-10	2	-87
5746	54	-300	1885	-10	2	-87
5751	54	-292	1916	-10	2	-87
5756	53	-300	1882	-10	2	-87
5761	44	-292	1898	-10	2	-87
5766	54	-292	1911	-10	2	-87
5771	56	-297	1909	-56	18	61
5776	56	-308	1893	-56	18	61
5781	52	-307	1898	-56	18	61
5786	49	-296	1900	-56	18	61
5791	50	-295	1906	-56	18	61
5796	62	-288	1904	-56	18	61
5801	55	-295	1899	-37	13	-115
5806	54	-305	1901	-37	13	-115
5811	55	-294	1895	-37	13	-115
5816	47	-295	1916	-37	13	-115
5821	51	-299	1912	-37	13	-115
5826	56	-294	1902	-37	13	-115
5831	62	-299	1902	3	49	-67
5836	52	-301	1901	3	49	-67
5841	51	-301	1892	3	49	-67
5846	57	-298	1906	3	49	-67
5851	54	-291	1888	3	49	-67
5856	62	-300	1897	3	49	-67
5861	56	-287	1903	-27	22	-7
5866	49	-295	1903	-27	22	-7
5871	45	-301	1902	-27	22	-7
5876	48	-290	1905	-27	22	-7
5881	52	-289	1911	-27	22	-7
5886	59	-289	1906	-27	22	-7
5891	58	-295	1901	-27	22	-7
5896	49	-293	1910	-38	13	-36
5901	49	-295	1893	-38	13	-36
5906	47	-294	1912	-38	13	-36
5911	44	-294	1903	-38	13	-36
5916	49	-297	1902	-38	13	-36
5921	62	-293	1907	-38	13	-36
5926	56	-305	1900	-36	8	8
5931	49	-298	1895	-36	8	8
5936	52	-300	1906	-36	8	8
5941	53	-284	1903	-36	8	8
5946	55	-297	1899	-36	8	8
5951	53	-295	1888	-36	8	8
5956	54	-304	1925	-45	-30	-130
5961	50	-291	1895	-45	-30	-130
5966	53	-292	1903	-45	-30	-130
5971	55	-292	1901	-45	-30	-130
5976	59	-307	1895	-45	-30	-130
5981	63	-303	1895	-45	-30	-130
5986	42	-298	1900	-23	16	144
5991	52	-300	1903	-23	16	144
5996	45	-288	1904	-23	16	144
6001	53	-296	1903	-23	16	144
6006	56	-300	1894	-23	16	144
6011	55	-303	1906	-23	16	144
6016	55	-294	1903	-5	-12	58
6021	57	-300	1900	-5	-12	58
6026	66	-286	1899	-5	-12	58
6031	63	-293	1898	-5	-12	58
6036	55	-295	1901	-5	-12	58
6041	54	-298	1901	-5	-12	58
6046	44	-296	1915	-5	-12	58
6051	55	-288	1903	-72	-36	5
6056	64	-292	1895	-72	-36	5
6061	55	-301	1897	-72	-36	5
6066	58	-295	1895	-72	-36	5
6071	50	-285	1901	-72	-36	5
6076	33	-301	1895	-72	-36	5
6081	21	-302	1888	-31	-116	613
6086	103	-342	1934	-31	-116	613
6091	11	-282	1888	-31	-116	613
6096	16	-240	1791	-31	-116	613
6101	-58	-289	2016	-31	-116	613
6106	-11	-252	1905	-31	-116	613
6111	224	-229	2001	98	28	291
6116	-2	-377	1874	98	28	291
6121	80	-347	1843	98	28	291
6126	141	-404	1958	98	28	291
6131	214	-325	1889	98	28	291
6136	149	-319	1961	98	28	291
6141	109	-263	1851	-133	82	23
6146	-106	-178	1883	-133	82	23
6151	78	-250	1921	-133	82	23
6156	66	-262	1898	-133	82	23
6161	41	-280	1896	-133	82	23
6166	124	-272	1909	-133	82	23
6171	53	-307	1876	36	13	-130
6176	71	-294	1927	36	13	-130
6181	66	-289	1883	36	13	-130
6186	77	-292	1905	36	13	-130
6191	64	-289	1911	36	13	-130
6196	60	-278	1899	36	13	-130
6201	77	-269	1912	36	13	-130
6206	65	-270	1913	-68	36	-39
6211	52	-275	1906	-68	36	-39
6216	63	-286	1894	-68	36	-39
6221	49	-277	1898	-68	36	-39
6226	54	-280	1898	-68	36	-39
6231	56	-268	1913	-68	36	-39
6236	73	-263	1906	-116	45	-301
6241	36	-362	1896	-116	45	-301
6246	50	-406	1861	-116	45	-301
6251	28	-197	1856	-116	45	-301
6256	94	-219	1892	-116	45	-301
6261	48	-265	1923	-116	45	-301
6266	24	-133	1940	6	60	-95
6271	10	-152	1884	6	60	-95
6276	26	-106	1881	6	60	-95
6281	124	-145	1824	6	60	-95
6286	69	-424	2033	6	60	-95
6291	77	-563	1961	6	60	-95
6296	76	-351	1931	-11	32	-23
6301	-14	-361	1873	-11	32	-23
6306	32	-284	1922	-11	32	-23
6311	38	-356	1889	-11	32	-23
6316	50	-302	1901	-11	32	-23
6321	43	-296	1887	-11	32	-23
6326	38	-294	1890	0	79	-187
6331	37	-286	1910	0	79	-187
6336	53	-285	1902	0	79	-187
6341	40	-293	1901	0	79	-187
6346	51	-268	1915	0	79	-187
6351	37	-285	1904	0	79	-187
6356	18	-286	1890	0	79	-187
6361	21	-294	1919	62	136	-58
6366	37	-277	1904	62	136	-58
6371	31	-264	1898	62	136	-58
6376	39	-277	1911	62	136	-58
6381	50	-244	1923	62	136	-58
6386	32	-244	1890	62	136	-58
6391	38	-263	1911	48	31	-281
6396	32	-262	1906	48	31	-281
6401	45	-257	1928	48	31	-281
6406	11	-277	1894	48	31	-281
6411	28	-282	1910	48	31	-281
6416	26	-266	1910	48	31	-281
6421	15	-253	1900	277	341	-297
6426	29	-262	1918	277	341	-297
6431	31	-245	1912	277	341	-297
6436	40	-246	1917	277	341	-297
6441	47	-195	1938	277	341	-297
6446	28	-271	1918	277	341	-297
6451	8	-207	1912	-2	-2	-119
6456	-14	-272	1892	-2	-2	-119
6461	-29	-223	1893	-2	-2	-119
6466	-22	-203	1908	-2	-2	-119
6471	-19	-226	1889	-2	-2	-119
6476	-33	-209	1879	-2	-2	-119
6481	-22	-209	1908	-127	-94	-218
6486	-77	-147	1920	-127	-94	-218
6491	-3	-225	1923	-127	-94	-218
6496	-48	-165	1908	-127	-94	-218
6501	-55	-201	1915	-127	-94	-218
6506	8	-280	1894	-127	-94	-218
6511	-52	-195	1910	-127	-94	-218
6516	10	-228	1924	24	58	-78
6521	-27	-169	1941	24	58	-78
6526	0	-205	1919	24	58	-78
6531	2	-247	1925	24	58	-78
6536	1	-213	1926	24	58	-78
6541	21	-228	1927	24	58	-78
6546	-15	-211	1929	64	49	-319
6551	-22	-201	1929	64	49	-319
6556	-30	-173	1926	64	49	-319
6561	-20	-228	1903	64	49	-319
6566	-18	-161	1962	64	49	-319
6571	-5	-254	1876	64	49	-319
6576	2	-200	1930	-19	29	-93
6581	-11	-209	1901	-19	29	-93
6586	-9	-204	1923	-19	29	-93
6591	-4	-168	1939	-19	29	-93
6596	-21	-191	1898	-19	29	-93
6601	-41	-191	1917	-19	29	-93
6606	-28	-183	1923	-23	55	-106
6611	-8	-167	1918	-23	55	-106
6616	-45	-195	1917	-23	55	-106
6621	-31	-188	1921	-23	55	-106
6626	-39	-214	1905	-23	55	-106
6631	-32	-193	1938	-23	55	-106
6636	-19	-179	1922	-65	27	-26
6641	-26	-200	1910	-65	27	-26
6646	-29	-225	1904	-65	27	-26
6651	-35	-211	1909	-65	27	-26
6656	-33	-202	1905	-65	27	-26
6661	-17	-186	1929	-65	27	-26
6666	-42	-204	1910	-65	27	-26
6671	-34	-205	1918	-44	83	5
6676	-30	-200	1920	-44	83	5
6681	-30	-191	1903	-44	83	5
6686	-28	-189	1913	-44	83	5
6691	-32	-184	1904	-44	83	5
6696	-29	-178	1923	-44	83	5
6701	-28	-182	1911	-54	82	-121
6706	-32	-195	1908	-54	82	-121
6711	-43	-182	1930	-54	82	-121
6716	-27	-205	1926	-54	82	-121
6721	-15	-200	1960	-54	82	-121
6726	-47	-192	1901	-54	82	-121
6731	-46	-208	1914	-92	51	-15
6736	-34	-237	1917	-92	51	-15
6741	-56	-236	1914	-92	51	-15
6746	-45	-205	1917	-92	51	-15
6751	-54	-213	1913	-92	51	-15
6756	-38	-219	1908	-92	51	-15
6761	-51	-214	1931	-45	100	-210
6766	-52	-204	1913	-45	100	-210
6771	-48	-193	1900	-45	100	-210
6776	-50	-212	1923	-45	100	-210
6781	-55	-204	1909	-45	100	-210
6786	-49	-213	1913	-45	100	-210
6791	-46	-206	1920	-26	140	-95
6796	-43	-202	1900	-26	140	-95
6801	-43	-230	1926	-26	140	-95
6806	-81	-204	1917	-26	140	-95
6811	-81	-217	1912	-26	140	-95
6816	-82	-219	1917	-26	140	-95
6821	-68	-217	1929	-26	140	-95
6826	-74	-218	1928	38	153	37
6831	-72	-204	1908	38	153	37
6836	-51	-229	1890	38	153	37
6841	-58	-225	1913	38	153	37
6846	-68	-210	1921	38	153	37
6851	-94	-225	1910	38	153	37
6856	-93	-209	1930	-72	58	-21
6861	-93	-205	1915	-72	58	-21
6866	-120	-213	1910	-72	58	-21
6871	-97	-232	1901	-72	58	-21
6876	-112	-216	1907	-72	58	-21
6881	-104	-211	1909	-72	58	-21
6886	-111	-210	1908	-52	52	75
6891	-106	-210	1911	-52	52	75
6896	-97	-210	1914	-52	52	75
6901	-94	-217	1925	-52	52	75
6906	-91	-218	1925	-52	52	75
6911	-100	-213	1902	-52	52	75
6916	-112	-210	1908	-95	-58	-108
6921	-117	-201	1915	-95	-58	-108
6926	-107	-201	1897	-95	-58	-108
6931	-111	-218	1915	-95	-58	-108
6936	-120	-215	1892	-95	-58	-108
6941	-121	-208	1906	-95	-58	-108
6946	-121	-211	1914	-11	167	-46
6951	-108	-206	1913	-11	167	-46
6956	-104	-210	1905	-11	167	-46
6961	-102	-219	1913	-11	167	-46
6966	-110	-218	1926	-11	167	-46
6971	-134	-217	1907	-11	167	-46
6976	-123	-205	1940	-11	167	-46
6981	-131	-217	1909	-36	-40	2
6986	-123	-211	1903	-36	-40	2
6991	-125	-215	1891	-36	-40	2
6996	-111	-226	1900	-36	-40	2
7001	-135	-207	1902	-36	-40	2
7006	-131	-202	1918	-36	-40	2
7011	-115	-214	1917	22	170	-56
7016	-125	-214	1919	22	170	-56
7021	-109	-216	1928	22	170	-56
7026	-112	-224	1939	22	170	-56
7031	-118	-200	1920	22	170	-56
7036	-139	-203	1897	22	170	-56
7041	-136	-206	1901	-69	-125	-18
7046	-133	-212	1910	-69	-125	-18
7051	-146	-213	1889	-69	-125	-18
7056	-137	-199	1895	-69	-125	-18
7061	-148	-194	1894	-69	-125	-18
7066	-129	-201	1913	-69	-125	-18
7071	-129	-196	1906	-56	-40	-109
7076	-125	-199	1916	-56	-40	-109
7081	-125	-207	1905	-56	-40	-109
7086	-129	-198	1919	-56	-40	-109
7091	-133	-196	1913	-56	-40	-109
7096	-126	-199	1915	-56	-40	-109
7101	-117	-203	1914	46	72	-24
7106	-113	-209	1915	46	72	-24
7111	-117	-195	1914	46	72	-24
7116	-119	-197	1918	46	72	-24
7121	-122	-197	1914	46	72	-24
7126	-118	-197	1927	46	72	-24
7131	-119	-196	1904	46	72	-24
7136	-119	-198	1907	10	20	-166
7141	-139	-193	1906	10	20	-166
7146	-125	-195	1903	10	20	-166
7151	-132	-193	1909	10	20	-166
7156	-122	-191	1911	10	20	-166
7161	-120	-197	1907	10	20	-166
7166	-123	-202	1907	-41	-4	93
7171	-120	-190	1913	-41	-4	93
7176	-126	-182	1928	-41	-4	93
7181	-118	-184	1931	-41	-4	93
7186	-123	-194	1916	-41	-4	93
7191	-132	-195	1908	-41	-4	93
7196	-130	-196	1903	-56	-15	29
7201	-135	-195	1918	-56	-15	29
7206	-126	-190	1924	-56	-15	29
7211	-130	-193	1900	-56	-15	29
7216	-126	-192	1911	-56	-15	29
7221	-118	-193	1905	-56	-15	29
7226	-123	-192	1914	-62	253	-18
7231	-129	-196	1910	-62	253	-18
7236	-122	-198	1911	-62	253	-18
7241	-138	-180	1910	-62	253	-18
7246	-127	-187	1916	-62	253	-18
7251	-125	-197	1950	-62	253	-18
7256	-133	-198	1922	-13	193	90
7261	-134	-195	1893	-13	193	90
7266	-161	-195	1917	-13	193	90
7271	-161	-190	1896	-13	193	90
7276	-149	-202	1909	-13	193	90
7281	-155	-217	1917	-13	193	90
7286	-151	-208	1932	-13	193	90
7291	-174	-199	1958	-32	152	-89
7296	-160	-201	1917	-32	152	-89
7301	-164	-196	1901	-32	152	-89
7306	-178	-192	1873	-32	152	-89
7311	-190	-192	1890	-32	152	-89
7316	-182	-201	1896	-32	152	-89
7321	-195	-187	1891	-45	133	36
7326	-195	-184	1900	-45	133	36
7331	-201	-187	1901	-45	133	36
7336	-199	-193	1908	-45	133	36
7341	-199	-204	1900	-45	133	36
7346	-199	-187	1924	-45	133	36
7351	-201	-183	1921	-16	90	-141
7356	-188	-185	1919	-16	90	-141
7361	-191	-193	1905	-16	90	-141
7366	-210	-191	1908	-16	90	-141
7371	-233	-195	1899	-16	90	-141
7376	-235	-184	1897	-16	90	-141
7381	-226	-181	1882	-11	-94	24
7386	-237	-162	1882	-11	-94	24
7391	-221	-162	1900	-11	-94	24
7396	-232	-142	1915	-11	-94	24
7401	-160	-249	1919	-11	-94	24
7406	-188	-243	1906	-11	-94	24
7411	-203	-210	1908	-29	-87	83
7416	-216	-196	1895	-29	-87	83
7421	-205	-192	1915	-29	-87	83
7426	-197	-194	1899	-29	-87	83
7431	-207	-183	1901	-29	-87	83
7436	-216	-182	1922	-29	-87	83
7441	-207	-193	1916	-29	-87	83
7446	-206	-182	1905	-24	19	-26
7451	-213	-189	1893	-24	19	-26
7456	-198	-202	1899	-24	19	-26
7461	-194	-191	1906	-24	19	-26
7466	-193	-183	1909	-24	19	-26
7471	-197	-191	1922	-24	19	-26
7476	-185	-195	1908	-25	12	9
7481	-188	-197	1906	-25	12	9
7486	-206	-189	1905	-25	12	9
7491	-212	-190	1899	-25	12	9
7496	-204	-184	1922	-25	12	9
7501	-188	-188	1921	-25	12	9
7506	-195	-193	1915	-43	-28	-90
7511	-197	-197	1930	-43	-28	-90
7516	-192	-194	1914	-43	-28	-90
7521	-193	-207	1922	-43	-28	-90
7526	-197	-188	1887	-43	-28	-90
7531	-195	-182	1892	-43	-28	-90
7536	-198	-190	1907	-35	-109	93
7541	-200	-189	1905	-35	-109	93
7546	-189	-196	1889	-35	-109	93
7551	-196	-189	1891	-35	-109	93
7556	-183	-188	1915	-35	-109	93
7561	-174	-187	1918	-35	-109	93
7566	-176	-191	1910	-43	-101	130
7571	-178	-190	1913	-43	-101	130
7576	-175	-195	1912	-43	-101	130
7581	-174	-200	1912	-43	-101	130
7586	-173	-201	1905	-43	-101	130
7591	-166	-184	1904	-43	-101	130
7596	-186	-196	1901	-43	-101	130
7601	-184	-192	1887	-27	-64	-62
7606	-174	-199	1922	-27	-64	-62
7611	-166	-200	1917	-27	-64	-62
7616	-148	-184	1907	-27	-64	-62
7621	-139	-200	1919	-27	-64	-62
7626	-149	-187	1896	-27	-64	-62
7631	-152	-208	1902	-79	-71	21
7636	-149	-196	1891	-79	-71	21
7641	-130	-205	1895	-79	-71	21
7646	-147	-205	1912	-79	-71	21
7651	-146	-197	1909	-79	-71	21
7656	-147	-198	1919	-79	-71	21
7661	-141	-197	1918	-29	-10	-137
7666	-141	-193	1904	-29	-10	-137
7671	-139	-199	1921	-29	-10	-137
7676	-148	-191	1912	-29	-10	-137
7681	-129	-202	1904	-29	-10	-137
7686	-136	-199	1911	-29	-10	-137
7691	-129	-206	1905	-59	-60	100
7696	-139	-205	1913	-59	-60	100
7701	-136	-205	1919	-59	-60	100
7706	-137	-197	1913	-59	-60	100
7711	-127	-203	1927	-59	-60	100
7716	-144	-196	1901	-59	-60	100
7721	-133	-204	1910	-92	28	-17
7726	-134	-198	1918	-92	28	-17
7731	-122	-196	1915	-92	28	-17
7736	-123	-204	1898	-92	28	-17
7741	-135	-206	1907	-92	28	-17
7746	-128	-212	1903	-92	28	-17
7751	-126	-200	1912	-92	28	-17
7756	-116	-208	1904	-49	-5	-73
7761	-111	-204	1925	-49	-5	-73
7766	-131	-200	1898	-49	-5	-73
7771	-124	-201	1916	-49	-5	-73
7776	-119	-208	1910	-49	-5	-73
7781	-122	-213	1894	-49	-5	-73
7786	-118	-194	1914	-64	8	53
7791	-111	-204	1907	-64	8	53
7796	-97	-205	1917	-64	8	53
7801	-120	-220	1924	-64	8	53
7806	-119	-210	1905	-64	8	53
7811	-114	-210	1909	-64	8	53
7816	-115	-208	1920	-33	42	-40
7821	-110	-201	1911	-33	42	-40
7826	-123	-215	1904	-33	42	-40
7831	-112	-211	1914	-33	42	-40
7836	-114	-217	1917	-33	42	-40
7841	-107	-229	1916	-33	42	-40
7846	-106	-205	1906	-51	21	2
7851	-105	-210	1902	-51	21	2
7856	-115	-213	1912	-51	21	2
7861	-111	-212	1910	-51	21	2
7866	-108	-210	1902	-51	21	2
7871	-118	-202	1905	-51	21	2
7876	-108	-211	1920	-60	79	-30
7881	-103	-204	1898	-60	79	-30
7886	-112	-215	1915	-60	79	-30
7891	-112	-220	1901	-60	79	-30
7896	-119	-210	1910	-60	79	-30
7901	-110	-212	1901	-60	79	-30
7906	-106	-209	1896	-60	79	-30
7911	-114	-210	1911	25	-2	58
7916	-107	-221	1907	25	-2	58
7921	-110	-221	1894	25	-2	58
7926	-114	-206	1908	25	-2	58
7931	-129	-196	1904	25	-2	58
7936	-105	-203	1907	25	-2	58
7941	-97	-214	1903	-49	-124	40
7946	-103	-213	1898	-49	-124	40
7951	-105	-216	1897	-49	-124	40
7956	-108	-216	1925	-49	-124	40
7961	-104	-213	1907	-49	-124	40
7966	-129	-199	1909	-49	-124	40
7971	-98	-212	1911	9	-75	-59
7976	-102	-209	1916	9	-75	-59
7981	-107	-215	1911	9	-75	-59
7986	-242	-339	1895	9	-75	-59
7991	-108	-205	1910	9	-75	-59
7996	-111	-208	1908	9	-75	-59
8001	-99	-208	1910	1	-64	-30
8006	-98	-212	1908	1	-64	-30
8011	-119	-200	1900	1	-64	-30
8016	-95	-208	1911	1	-64	-30
8021	-116	-202	1917	1	-64	-30
8026	-102	-225	1924	1	-64	-30
8031	-35	-166	1910	60	-72	-97
8036	-100	-209	1922	60	-72	-97
8041	-87	-211	1904	60	-72	-97
8046	-87	-218	1918	60	-72	-97
8051	-51	-179	1905	60	-72	-97
8056	-58	-174	1921	60	-72	-97
8061	-93	-199	1908	60	-72	-97
8066	-113	-202	1919	-48	39	118
8071	-92	-200	1915	-48	39	118
8076	-94	-194	1908	-48	39	118
8081	-87	-199	1901	-48	39	118
8086	-84	-192	1902	-48	39	118
8091	-56	-219	1909	-48	39	118
8096	-89	-203	1924	15	-29	-89
8101	-105	-188	1902	15	-29	-89
8106	-99	-189	1927	15	-29	-89
8111	-71	-201	1931	15	-29	-89
8116	-79	-197	1910	15	-29	-89
8121	-89	-196	1904	15	-29	-89
8126	-103	-199	1908	22	-37	175
8131	-98	-190	1921	22	-37	175
8136	-81	-195	1942	22	-37	175
8141	-88	-194	1918	22	-37	175
8146	-85	-199	1912	22	-37	175
8151	-71	-206	1903	22	-37	175
8156	-71	-202	1926	9	-8	90
8161	-116	-188	1913	9	-8	90
8166	-99	-184	1907	9	-8	90
8171	-94	-185	1911	9	-8	90
8176	-90	-185	1918	9	-8	90
8181	-101	-184	1909	9	-8	90
8186	-92	-181	1918	-52	42	-141
8191	-95	-179	1926	-52	42	-141
8196	-85	-182	1919	-52	42	-141
8201	-92	-179	1915	-52	42	-141
8206	-92	-187	1926	-52	42	-141
8211	-90	-203	1917	-52	42	-141
8216	-83	-185	1925	-52	42	-141
8221	-93	-183	1922	-108	58	-75
8226	-101	-183	1920	-108	58	-75
8231	-105	-179	1912	-108	58	-75
8236	-116	-191	1912	-108	58	-75
8241	-105	-188	1919	-108	58	-75
8246	-96	-183	1908	-108	58	-75
8251	-110	-187	1914	-82	56	-155
8256	-91	-193	1910	-82	56	-155
8261	-99	-192	1910	-82	56	-155
8266	-93	-200	1913	-82	56	-155
8271	-85	-197	1929	-82	56	-155
8276	-92	-184	1914	-82	56	-155
8281	-92	-194	1902	16	2	93
8286	-109	-184	1896	16	2	93
8291	-111	-176	1916	16	2	93
8296	-83	-201	1910	16	2	93
8301	-88	-211	1907	16	2	93
8306	-86	-208	1915	16	2	93
8311	-90	-200	1924	-17	30	-118
8316	-95	-198	1916	-17	30	-118
8321	-96	-200	1923	-17	30	-118
8326	-91	-196	1919	-17	30	-118
8331	-97	-203	1906	-17	30	-118
8336	-96	-191	1910	-17	30	-118
8341	-87	-201	1917	-36	59	-48
8346	-93	-205	1911	-36	59	-48
8351	-88	-206	1909	-36	59	-48
8356	-108	-195	1907	-36	59	-48
8361	-83	-190	1897	-36	59	-48
8366	-114	-189	1906	-36	59	-48
8371	-96	-193	1913	-36	59	-48
8376	-113	-189	1911	-57	2	-56
8381	-94	-198	1901	-57	2	-56
8386	-87	-196	1907	-57	2	-56
8391	-93	-190	1913	-57	2	-56
8396	-93	-174	1911	-57	2	-56
8401	-87	-183	1908	-57	2	-56
8406	-96	-191	1908	-30	-55	-11
8411	-76	-196	1912	-30	-55	-11
8416	-93	-191	1918	-30	-55	-11
8421	-113	-186	1898	-30	-55	-11
8426	-99	-184	1919	-30	-55	-11
8431	-103	-183	1916	-30	-55	-11
8436	-133	-189	1916	-34	5	59
8441	-107	-194	1911	-34	5	59
8446	-85	-199	1924	-34	5	59
8451	-74	-196	1922	-34	5	59
8456	-92	-193	1918	-34	5	59
8461	-97	-197	1915	-34	5	59
8466	-93	-204	1899	-66	-19	-134
8471	-97	-198	1908	-66	-19	-134
8476	-102	-187	1901	-66	-19	-134
8481	-99	-194	1930	-66	-19	-134
8486	-87	-196	1921	-66	-19	-134
8491	-102	-191	1905	-66	-19	-134
8496	-97	-189	1913	-3	22	-48
8501	-99	-209	1906	-3	22	-48
8506	-97	-198	1910	-3	22	-48
8511	-81	-201	1924	-3	22	-48
8516	-91	-195	1909	-3	22	-48
8521	-90	-197	1911	-3	22	-48
8526	-101	-194	1925	-3	22	-48
8531	-103	-188	1917	-25	-56	30
8536	-86	-203	1925	-25	-56	30
8541	-96	-193	1908	-25	-56	30
8546	-97	-200	1895	-25	-56	30
8551	-97	-188	1919	-25	-56	30
8556	-102	-201	1897	-25	-56	30
8561	-100	-202	1905	-55	-37	-83
8566	-106	-183	1904	-55	-37	-83
8571	-96	-193	1914	-55	-37	-83
8576	-85	-184	1918	-55	-37	-83
8581	-106	-201	1918	-55	-37	-83
8586	-91	-200	1912	-55	-37	-83
8591	-95	-189	1915	-55	3	5
8596	-90	-193	1917	-55	3	5
8601	-92	-207	1926	-55	3	5
8606	-96	-192	1918	-55	3	5
8611	-98	-205	1902	-55	3	5
8616	-93	-197	1912	-55	3	5
8621	-94	-185	1914	-14	22	-87
8626	-89	-199	1908	-14	22	-87
8631	-107	-186	1904	-14	22	-87
8636	-76	-186	1922	-14	22	-87
8641	-106	-218	1904	-14	22	-87
8646	-103	-210	1910	-14	22	-87
8651	-101	-202	1912	-14	32	-37
8656	-95	-188	1906	-14	32	-37
8661	-86	-188	1907	-14	32	-37
8666	-101	-194	1921	-14	32	-37
8671	-86	-193	1915	-14	32	-37
8676	-95	-197	1916	-14	32	-37
8681	-100	-195	1912	-14	32	-37
8686	-93	-197	1914	-47	-12	-115
8691	-100	-200	1916	-47	-12	-115
8696	-98	-188	1915	-47	-12	-115
8701	-95	-192	1916	-47	-12	-115
8706	-96	-198	1899	-47	-12	-115
8711	-105	-203	1913	-47	-12	-115
8716	-87	-198	1918	-56	2	84
8721	-96	-192	1917	-56	2	84
8726	-90	-196	1903	-56	2	84
8731	-91	-197	1926	-56	2	84
8736	-91	-193	1914	-56	2	84
8741	-97	-191	1900	-56	2	84
8746	-84	-196	1914	-40	26	5
8751	-92	-196	1923	-40	26	5
8756	-89	-203	1918	-40	26	5
8761	-100	-203	1912	-40	26	5
8766	-109	-198	1917	-40	26	5
8771	-89	-191	1927	-40	26	5
8776	-91	-191	1909	-7	-12	-12
8781	-101	-201	1915	-7	-12	-12
8786	-92	-207	1922	-7	-12	-12
8791	-97	-200	1915	-7	-12	-12
8796	-96	-198	1907	-7	-12	-12
8801	-101	-190	1913	-7	-12	-12
8808	-96	-197	1915	-33	38	67
8811	-97	-207	1904	-33	38	67
8816	-93	-213	1910	-33	38	67
8821	-95	-200	1912	-33	38	67
8826	-100	-196	1907	-33	38	67
8831	-95	-195	1915	-33	38	67
8836	-86	-201	1901	-33	38	67
8841	-90	-200	1910	-1	-11	-138
8846	-87	-194	1890	-1	-11	-138
8851	-94	-195	1920	-1	-11	-138
8856	-95	-193	1905	-1	-11	-138
8861	-92	-193	1908	-1	-11	-138
8866	-86	-189	1915	-1	-11	-138
8871	-94	-197	1907	-21	-25	59
8876	-101	-189	1908	-21	-25	59
8881	-90	-193	1913	-21	-25	59
8886	-87	-192	1925	-21	-25	59
8891	-91	-196	1902	-21	-25	59
8896	-87	-194	1907	-21	-25	59
8901	-92	-198	1918	25	-70	-134
8906	-98	-199	1918	25	-70	-134
8911	-92	-194	1906	25	-70	-134
8916	-90	-198	1904	25	-70	-134
8921	-89	-198	1900	25	-70	-134
8926	-88	-196	1915	25	-70	-134
8931	-97	-195	1922	-23	2	-26
8936	-98	-191	1914	-23	2	-26
8941	-88	-182	1913	-23	2	-26
8946	-80	-186	1917	-23	2	-26
8951	-89	-192	1918	-23	2	-26
8956	-88	-182	1903	-23	2	-26
8961	-92	-188	1909	-20	19	-17
8966	-88	-185	1909	-20	19	-17
8971	-85	-182	1927	-20	19	-17
8976	-86	-194	1907	-20	19	-17
8981	-82	-187	1929	-20	19	-17
8986	-85	-193	1913	-20	19	-17
8991	-91	-192	1918	-20	19	-17
8996	-89	-189	1924	-35	-14	-46
9001	-93	-179	1909	-35	-14	-46
9006	-83	-195	1917	-35	-14	-46
9011	-82	-186	1916	-35	-14	-46
9016	-89	-194	1922	-35	-14	-46
9021	-96	-189	1921	-35	-14	-46
9026	-76	-191	1918	-31	-32	70
9031	-88	-187	1922	-31	-32	70
9036	-80	-185	1916	-31	-32	70
9041	-90	-185	1914	-31	-32	70
9046	-83	-186	1922	-31	-32	70
9051	-87	-187	1912	-31	-32	70
9056	-89	-189	1923	-49	-12	-212
9061	-83	-183	1913	-49	-12	-212
9066	-70	-186	1912	-49	-12	-212
9071	-68	-195	1912	-49	-12	-212
9076	-83	-194	1911	-49	-12	-212
9081	-88	-183	1902	-49	-12	-212
9086	46	-392	2019	-43	-10	84
9091	-76	-185	1922	-43	-10	84
9096	-77	-181	1917	-43	-10	84
9101	-85	-165	1925	-43	-10	84
9106	111	-122	1931	-43	-10	84
9111	-55	-203	1937	-43	-10	84
9116	-89	-169	1933	-17	8	-105
9121	-88	-174	1918	-17	8	-105
9126	-79	-186	1921	-17	8	-105
9131	-85	-173	1916	-17	8	-105
9136	-72	-173	1911	-17	8	-105
9141	-83	-177	1913	-17	8	-105
9146	-79	-166	1922	-17	8	-105
9151	-78	-180	1919	-11	-27	-5
9156	-82	-173	1913	-11	-27	-5
9161	-80	-183	1910	-11	-27	-5
9166	-74	-177	1905	-11	-27	-5
9171	-58	-182	1925	-11	-27	-5
9176	-70	-167	1936	-11	-27	-5
9181	-82	-170	1913	-22	35	-43
9186	-86	-179	1916	-22	35	-43
9191	-86	-184	1920	-22	35	-43
9196	-78	-179	1916	-22	35	-43
9201	-78	-179	1922	-22	35	-43
9206	-78	-172	1903	-22	35	-43
9211	-71	-179	1918	-59	92	-30
9216	-68	-180	1909	-59	92	-30
9221	-77	-184	1915	-59	92	-30
9226	-76	-184	1921	-59	92	-30
9231	-83	-172	1916	-59	92	-30
9236	-84	-172	1925	-59	92	-30
9241	-79	-168	1929	-95	59	115
9246	-80	-182	1917	-95	59	115
9251	-90	-182	1922	-95	59	115
9256	-65	-177	1903	-95	59	115
9261	-93	-175	1914	-95	59	115
9266	-88	-173	1901	-95	59	115
9271	-86	-182	1917	-23	28	53
9276	-86	-178	1913	-23	28	53
9281	-90	-187	1911	-23	28	53
9286	-71	-193	1918	-23	28	53
9291	-80	-177	1924	-23	28	53
9296	-85	-191	1916	-23	28	53
9301	-76	-195	1915	-23	28	53
9306	-103	-199	1912	-44	11	-23
9311	-92	-193	1926	-44	11	-23
9316	-97	-193	1918	-44	11	-23
9321	-87	-187	1913	-44	11	-23
9326	-89	-180	1896	-44	11	-23
9331	-91	-193	1913	-44	11	-23
9336	-93	-190	1917	-47	5	36
9341	-96	-178	1918	-47	5	36
9346	-102	-184	1917	-47	5	36
9351	-90	-180	1925	-47	5	36
9356	-89	-181	1917	-47	5	36
9361	-83	-188	1899	-47	5	36
9366	-99	-180	1908	-31	89	-39
9371	-86	-182	1928	-31	89	-39
9376	-91	-176	1918	-31	89	-39
9381	-78	-177	1924	-31	89	-39
9386	-98	-178	1909	-31	89	-39
9391	-95	-183	1920	-31	89	-39
9396	-90	-194	1918	-60	9	83
9401	-96	-188	1909	-60	9	83
9406	-96	-179	1919	-60	9	83
9411	-96	-175	1912	-60	9	83
9416	-99	-177	1924	-60	9	83
9421	-99	-177	1908	-60	9	83
9426	-91	-186	1921	-59	69	-37
9431	-93	-187	1917	-59	69	-37
9436	-94	-182	1912	-59	69	-37
9441	-96	-184	1909	-59	69	-37
9446	-95	-180	1916	-59	69	-37
9451	-107	-179	1934	-59	69	-37
9456	-103	-182	1925	-59	69	-37
9461	-99	-180	1916	3	49	61
9466	-99	-180	1918	3	49	61
9471	-92	-183	1912	3	49	61
9476	-90	-182	1919	3	49	61
9481	-100	-186	1925	3	49	61
9486	-101	-179	1927	3	49	61
9491	-100	-174	1923	-30	-50	-105
9496	-95	-171	1909	-30	-50	-105
9501	-101	-188	1900	-30	-50	-105
9506	-95	-179	1913	-30	-50	-105
9511	-91	-181	1911	-30	-50	-105
9516	-93	-185	1907	-30	-50	-105
9521	-86	-176	1920	-69	39	-33
9526	-94	-180	1912	-69	39	-33
9531	-95	-175	1923	-69	39	-33
9536	-93	-176	1926	-69	39	-33
9541	-92	-182	1919	-69	39	-33
9546	-95	-185	1905	-69	39	-33
9551	-99	-177	1908	-31	19	11
9556	-96	-186	1911	-31	19	11
9561	-95	-180	1917	-31	19	11
9566	-92	-188	1928	-31	19	11
9571	-101	-176	1922	-31	19	11
9576	-92	-179	1920	-31	19	11
9581	-94	-173	1920	5	21	-111
9586	-92	-175	1919	5	21	-111
9591	-90	-188	1904	5	21	-111
9596	-90	-188	1915	5	21	-111
9601	-87	-175	1908	5	21	-111
9606	-102	-179	1911	5	21	-111
9611	-81	-182	1920	5	21	-111
9616	-92	-184	1916	-43	-25	111
9621	-96	-185	1921	-43	-25	111
9626	-103	-189	1912	-43	-25	111
9631	-86	-171	1909	-43	-25	111
9636	-98	-180	1921	-43	-25	111
9641	-90	-182	1910	-43	-25	111
9646	-104	-170	1910	-30	-32	-102
9651	-106	-186	1894	-30	-32	-102
9656	-103	-185	1936	-30	-32	-102
9661	-97	-174	1909	-30	-32	-102
9666	-90	-175	1902	-30	-32	-102
9671	-93	-178	1909	-30	-32	-102
9676	-89	-178	1918	-40	5	58
9681	-89	-188	1916	-40	5	58
9686	-101	-181	1907	-40	5	58
9691	-90	-170	1920	-40	5	58
9696	-87	-176	1908	-40	5	58
9701	-93	-177	1906	-40	5	58
9706	-90	-184	1913	-151	-22	-4
9711	-97	-178	1931	-151	-22	-4
9716	-94	-175	1914	-151	-22	-4
9721	-99	-167	1911	-151	-22	-4
9726	-92	-181	1913	-151	-22	-4
9731	-82	-176	1908	-151	-22	-4
9736	-101	-181	1912	-110	35	-257
9741	46	-269	1916	-110	35	-257
9746	2	-250	1915	-110	35	-257
9751	-142	-171	1899	-110	35	-257
9756	-34	-242	1932	-110	35	-257
9761	-80	-271	1952	-110	35	-257
9766	110	17	2170	-110	35	-257
9771	-279	-334	1928	-9	-16	-51
9776	-95	-193	1905	-9	-16	-51
9781	-87	-208	1911	-9	-16	-51
9786	-93	-200	1921	-9	-16	-51
9791	-99	-193	1914	-9	-16	-51
9796	-106	-186	1895	-9	-16	-51
9801	-104	-189	1892	-81	67	-95
9806	-109	-191	1928	-81	67	-95
9811	-95	-185	1916	-81	67	-95
9816	-93	-194	1908	-81	67	-95
9821	-89	-192	1900	-81	67	-95
9826	-95	-185	1905	-81	67	-95
9831	-92	-196	1902	-38	53	113
9836	-92	-196	1908	-38	53	113
9841	-88	-201	1926	-38	53	113
9846	-81	-193	1905	-38	53	113
9851	-94	-194	1921	-38	53	113
9856	-88	-195	1907	-38	53	113
9861	-100	-191	1914	-40	29	-74
9866	-103	-191	1907	-40	29	-74
9871	-98	-200	1918	-40	29	-74
9876	-91	-198	1908	-40	29	-74
9881	-91	-206	1912	-40	29	-74
9886	-101	-199	1910	-40	29	-74
9891	-97	-193	1910	-36	55	15
9896	-98	-194	1916	-36	55	15
9901	-102	-189	1924	-36	55	15
9906	-95	-199	1910	-36	55	15
9911	-106	-195	1919	-36	55	15
9916	-104	-210	1898	-36	55	15
9921	-95	-191	1927	-36	55	15
9926	-94	-188	1901	-40	26	-33
9931	-99	-193	1908	-40	26	-33
9936	-92	-191	1912	-40	26	-33
9941	-103	-201	1921	-40	26	-33
9946	-105	-195	1911	-40	26	-33
9951	-104	-194	1926	-40	26	-33
9956	-102	-190	1922	-66	-11	93
9961	-82	-186	1923	-66	-11	93
9966	-20	22	1972	-66	-11	93
9971	-114	-271	1878	-66	-11	93
9976	-103	-128	1913	-66	-11	93
9981	-145	-176	1864	-66	-11	93
9986	-95	-226	1926	97	-28	116
9991	-101	-193	1904	97	-28	116
9996	-104	-198	1902	97	-28	116
10001	-105	-181	1914	97	-28	116
10006	-117	-180	1912	97	-28	116
10011	-101	-173	1956	97	-28	116
10016	-174	-66	2112	-4	-16	-56
10021	-155	-299	1844	-4	-16	-56
10026	-82	-343	1782	-4	-16	-56
10031	-95	-170	1885	-4	-16	-56
10036	-120	-160	1920	-4	-16	-56
10041	-101	-172	1907	-4	-16	-56
10046	-99	-159	1930	0	12	-29
10051	-98	-158	1897	0	12	-29
10056	-99	-173	1909	0	12	-29
10061	-110	-166	1916	0	12	-29
10066	-108	-163	1918	0	12	-29
10071	-101	-161	1930	0	12	-29
10076	-88	-158	1910	0	12	-29
10081	-100	-154	1919	3	2	-51
10086	-112	-166	1902	3	2	-51
10091	-106	-156	1917	3	2	-51
10096	-104	-156	1923	3	2	-51
10101	-100	-150	1921	3	2	-51
10106	-102	-146	1915	3	2	-51
10111	-91	-146	1898	-74	21	-77
10116	-104	-149	1915	-74	21	-77
10121	-101	-150	1913	-74	21	-77
10126	-114	-154	1913	-74	21	-77
10131	-95	-155	1933	-74	21	-77
10136	-110	-149	1934	-74	21	-77
10141	-111	-157	1938	-89	-41	27
10146	-105	-174	1920	-89	-41	27
10151	-107	-157	1925	-89	-41	27
10156	-109	-171	1904	-89	-41	27
10161	-107	-163	1909	-89	-41	27
10166	-115	-161	1906	-89	-41	27
10171	-104	-159	1914	-84	-84	-5
10176	-89	-172	1932	-84	-84	-5
10181	-86	-172	1922	-84	-84	-5
10186	-83	-169	1908	-84	-84	-5
10191	-93	-165	1909	-84	-84	-5
10196	-92	-166	1907	-84	-84	-5
10201	-100	-173	1901	-4	-65	8
10206	-153	-148	1931	-4	-65	8
10211	-73	-170	1914	-4	-65	8
10216	-83	-173	1922	-4	-65	8
10221	-61	-154	1907	-4	-65	8
10226	-45	-179	1925	-4	-65	8
10231	-72	-166	1930	-4	-65	8
10236	-54	-180	1924	-59	10	-106
10241	-88	-167	1915	-59	10	-106
10246	-89	-172	1917	-59	10	-106
10251	-73	-163	1914	-59	10	-106
10256	-84	-179	1918	-59	10	-106
10261	-80	-174	1916	-59	10	-106
10266	-74	-174	1906	-40	-20	83
10271	-74	-180	1925	-40	-20	83
10276	-66	-164	1915	-40	-20	83
10281	-78	-169	1921	-40	-20	83
10286	-46	-169	1912	-40	-20	83
10291	-88	-163	1910	-40	-20	83
10296	-71	-170	1909	-8	-5	-30
10301	-72	-164	1905	-8	-5	-30
10306	-80	-161	1910	-8	-5	-30
10311	-64	-169	1928	-8	-5	-30
10316	-80	-166	1921	-8	-5	-30
10321	-69	-172	1918	-8	-5	-30
10326	-74	-168	1915	-14	-7	36
10331	-70	-167	1921	-14	-7	36
10336	-65	-165	1914	-14	-7	36
10341	-75	-172	1913	-14	-7	36
10346	-73	-175	1921	-14	-7	36
10351	-74	-170	1928	-14	-7	36
10356	-84	-169	1908	14	-41	5
10361	-69	-174	1905	14	-41	5
10366	-64	-169	1910	14	-41	5
10371	-185	-32	1888	14	-41	5
10376	21	-213	1901	14	-41	5
10381	-58	-141	1893	14	-41	5
10386	-57	-155	1938	14	-41	5
10391	-56	-145	1912	-53	26	-102
10396	-60	-163	1915	-53	26	-102
10401	-54	-157	1924	-53	26	-102
10406	-67	-169	1922	-53	26	-102
10411	-72	-160	1929	-53	26	-102
10416	-65	-161	1916	-53	26	-102
10421	-64	-167	1916	-84	-91	78
10426	-62	-153	1908	-84	-91	78
10431	-61	-157	1909	-84	-91	78
10436	-61	-162	1920	-84	-91	78
10441	-67	-170	1911	-84	-91	78
10446	-51	-177	1930	-84	-91	78
10451	-53	-164	1930	-59	-78	-49
10456	-53	-171	1911	-59	-78	-49
10461	-51	-168	1915	-59	-78	-49
10466	-57	-158	1889	-59	-78	-49
10471	-62	-171	1922	-59	-78	-49
10476	-60	-175	1921	-59	-78	-49
10481	-56	-159	1912	64	-102	-24
10486	-56	-175	1917	64	-102	-24
10491	-42	-183	1909	64	-102	-24
10496	-63	-172	1917	64	-102	-24
10501	-37	-175	1915	64	-102	-24
10506	-26	-164	1921	64	-102	-24
10511	-18	-188	1924	-71	-1	-10
10516	-20	-168	1902	-71	-1	-10
10521	-22	-165	1915	-71	-1	-10
10526	-25	-174	1911	-71	-1	-10
10531	-32	-148	1907	-71	-1	-10
10536	-24	-172	1917	-71	-1	-10
10541	-15	-163	1911	-71	-1	-10
10546	-25	-163	1924	-56	0	5
10551	-37	-168	1922	-56	0	5
10556	-26	-163	1913	-56	0	5
10561	-35	-167	1905	-56	0	5
10566	-23	-156	1921	-56	0	5
10571	-16	-167	1909	-56	0	5
10576	-24	-174	1929	-73	-89	65
10581	-21	-171	1915	-73	-89	65
10586	-34	-165	1929	-73	-89	65
10591	-34	-164	1905	-73	-89	65
10596	-27	-163	1908	-73	-89	65
10601	-22	-174	1920	-73	-89	65
10606	-30	-166	1923	-81	9	-112
10611	-36	-177	1914	-81	9	-112
10616	-30	-163	1916	-81	9	-112
10621	-20	-163	1918	-81	9	-112
10626	-16	-169	1916	-81	9	-112
10631	-22	-176	1912	-81	9	-112
10636	-26	-173	1925	-33	6	43
10641	-19	-159	1912	-33	6	43
10646	-34	-162	1907	-33	6	43
10651	-15	-163	1914	-33	6	43
10656	-23	-171	1908	-33	6	43
10661	-21	-162	1919	-33	6	43
10666	-18	-182	1913	-62	39	1
10671	-29	-170	1922	-62	39	1
10676	-27	-169	1913	-62	39	1
10681	-13	-164	1911	-62	39	1
10686	-18	-175	1922	-62	39	1
10691	-31	-177	1909	-62	39	1
10696	-23	-176	1909	-62	39	1
10701	-30	-167	1917	-37	5	-34
10706	-19	-159	1916	-37	5	-34
10711	-24	-168	1901	-37	5	-34
10716	-15	-168	1913	-37	5	-34
10721	-25	-173	1925	-37	5	-34
10726	-24	-173	1913	-37	5	-34
10731	-23	-167	1924	-25	-15	-30
10736	-20	-168	1910	-25	-15	-30
10741	-11	-174	1904	-25	-15	-30
10746	-13	-164	1920	-25	-15	-30
10751	-20	-169	1926	-25	-15	-30
10756	-20	-178	1907	-25	-15	-30
10761	-25	-167	1902	-4	71	-2
10766	-24	-166	1919	-4	71	-2
10771	-22	-159	1917	-4	71	-2
10776	-18	-174	1912	-4	71	-2
10781	-27	-168	1904	-4	71	-2
10786	-20	-150	1925	-4	71	-2
10791	-15	-163	1924	12	23	80
10796	-19	-166	1922	12	23	80
10801	-23	-163	1926	12	23	80
10806	-28	-159	1913	12	23	80
10811	-23	-165	1918	12	23	80
10816	-42	-156	1916	12	23	80
10821	-25	-156	1923	1	28	-61
10826	-22	-157	1927	1	28	-61
10831	-24	-154	1917	1	28	-61
10836	-31	-164	1914	1	28	-61
10841	-31	-153	1924	1	28	-61
10846	-35	-142	1924	1	28	-61
10851	-36	-143	1920	1	28	-61
10856	-20	-143	1935	36	100	20
10861	-36	-144	1918	36	100	20
10866	-16	-138	1948	36	100	20
10871	-41	-100	1938	36	100	20
10876	-85	-130	1865	36	100	20
10881	-52	-141	1900	36	100	20
10886	-46	-128	1934	23	125	-10
10891	-53	-125	1912	23	125	-10
10896	-62	-133	1904	23	125	-10
10901	-78	-123	1913	23	125	-10
10906	-68	-126	1910	23	125	-10
10911	-56	-125	1929	23	125	-10
10916	-69	-121	1922	-36	149	-64
10921	-70	-126	1925	-36	149	-64
10926	-81	-125	1903	-36	149	-64
10931	-79	-117	1917	-36	149	-64
10936	-70	-113	1907	-36	149	-64
10941	-58	-111	1930	-36	149	-64
10946	-61	-111	1922	-56	42	-105
10951	-85	-115	1906	-56	42	-105
10956	-80	-114	1914	-56	42	-105
10961	-84	-119	1910	-56	42	-105
10966	-81	-108	1925	-56	42	-105
10971	-86	-111	1931	-56	42	-105
10976	-95	-122	1910	63	1	39
10981	-91	-123	1918	63	1	39
10986	-95	-123	1925	63	1	39
10991	-101	-121	1915	63	1	39
10996	-84	-107	1915	63	1	39
11001	-86	-111	1935	63	1	39
11006	-88	-121	1929	63	1	39
11011	-84	-124	1914	50	-22	55
11016	-87	-112	1918	50	-22	55
11021	-96	-111	1911	50	-22	55
11026	-85	-103	1920	50	-22	55
11031	-86	-114	1913	50	-22	55
11036	-87	-108	1921	50	-22	55
11041	-69	-45	1860	29	9	-95
11046	-90	-98	1919	29	9	-95
11051	-83	-74	1911	29	9	-95
11056	-89	-69	1892	29	9	-95
11061	-68	-122	1924	29	9	-95
11066	-84	-107	1924	29	9	-95
11071	-84	-101	1925	3	36	-15
11076	-81	-109	1932	3	36	-15
11081	-84	-100	1922	3	36	-15
11086	-87	-95	1924	3	36	-15
11091	-79	-96	1918	3	36	-15
11096	-74	-86	1901	3	36	-15
11101	-96	-95	1922	83	5	-61
11106	-86	-91	1931	83	5	-61
11111	-91	-71	1885	83	5	-61
11116	-84	-84	1916	83	5	-61
11121	-93	-92	1907	83	5	-61
11126	-106	-90	1918	83	5	-61
11131	-74	-90	1919	-25	26	2
11136	-86	-100	1918	-25	26	2
11141	-67	-100	1916	-25	26	2
11146	-106	-84	1936	-25	26	2
11151	-103	-76	1916	-25	26	2
11156	-153	-41	1917	-25	26	2
11161	-101	-78	1924	-25	26	2
11166	-101	-84	1928	44	8	113
11171	-83	-76	1916	44	8	113
11176	-87	-80	1934	44	8	113
11181	-80	-65	1918	44	8	113
11186	-68	-88	1911	44	8	113
11191	-93	-69	1927	44	8	113
11196	-117	-45	1929	-31	9	-119
11201	-115	-50	1925	-31	9	-119
11206	-99	-65	1924	-31	9	-119
11211	-95	-73	1935	-31	9	-119
11216	-97	-75	1918	-31	9	-119
11221	-97	-71	1931	-31	9	-119
11226	-91	-63	1936	18	6	100
11231	-100	-59	1931	18	6	100
11236	-104	-57	1918	18	6	100
11241	-95	-61	1929	18	6	100
11246	-88	-73	1931	18	6	100
11251	-98	-71	1921	18	6	100
11256	-91	-57	1916	31	-51	8
11261	-95	-65	1910	31	-51	8
11266	-98	-54	1919	31	-51	8
11271	-115	-62	1935	31	-51	8
11276	-97	-53	1934	31	-51	8
11281	-90	-63	1923	31	-51	8
11286	-96	-61	1932	-8	-1	-105
11291	-83	-62	1933	-8	-1	-105
11296	-87	-62	1925	-8	-1	-105
11301	-81	-51	1923	-8	-1	-105
11306	-88	-56	1937	-8	-1	-105
11311	-95	-47	1934	-8	-1	-105
11316	-107	-37	1908	-8	-1	-105
11321	-109	-41	1918	-233	-74	-64
11326	-91	-67	1958	-233	-74	-64
11331	-104	-45	1909	-233	-74	-64
11336	-110	-40	1923	-233	-74	-64
11341	-116	-28	1927	-233	-74	-64
11346	-80	-35	1847	-233	-74	-64
11351	-64	-4	1886	62	13	-74
11356	-72	-80	1990	62	13	-74
11361	-91	-47	1903	62	13	-74
11366	-87	-49	1924	62	13	-74
11371	-52	-60	1950	62	13	-74
11376	-85	-40	1928	62	13	-74
11381	-122	-14	1912	-46	-19	100
11386	-99	-29	1922	-46	-19	100
11391	-120	-4	1920	-46	-19	100
11396	-86	-52	1928	-46	-19	100
11401	-109	33	1760	-46	-19	100
11406	-116	-1	1840	-46	-19	100
11411	-63	-35	1926	-56	18	-153
11416	-120	-27	1891	-56	18	-153
11421	-95	-2	1858	-56	18	-153
11426	-53	-58	1981	-56	18	-153
11431	-68	-109	2089	-56	18	-153
11436	-89	-35	1925	-56	18	-153
11441	-87	-31	1895	-16	16	-12
11446	-86	-37	1926	-16	16	-12
11451	-86	-38	1918	-16	16	-12
11456	-89	-31	1926	-16	16	-12
11461	-108	-45	1869	-16	16	-12
11466	-83	-40	1891	-16	16	-12
11471	-66	-59	1975	-16	16	-12
11476	-50	-66	1999	35	18	12
11481	-87	-48	1911	35	18	12
11486	-89	-53	1910	35	18	12
11491	-79	-49	1932	35	18	12
11496	-77	-50	1941	35	18	12
11501	-80	-44	1927	35	18	12
11506	-92	-38	1927	3	-24	-27
11511	-90	-38	1915	3	-24	-27
11516	-84	-35	1925	3	-24	-27
11521	-82	-37	1918	3	-24	-27
11526	-76	-51	1929	3	-24	-27
11531	-89	-44	1929	3	-24	-27
11536	-90	-35	1923	-75	23	-59
11541	-92	-35	1927	-75	23	-59
11546	-86	-26	1907	-75	23	-59
11551	-99	-18	1922	-75	23	-59
11556	-99	-33	1916	-75	23	-59
11561	-93	-30	1927	-75	23	-59
11566	-91	-27	1914	-43	36	-115
11571	-88	-31	1922	-43	36	-115
11576	-90	-29	1935	-43	36	-115
11581	-73	-51	1925	-43	36	-115
11586	-72	-35	1920	-43	36	-115
11591	-86	-44	1916	-43	36	-115
11596	-92	-34	1931	-43	12	-51
11601	-75	-36	1926	-43	12	-51
11606	-91	-26	1910	-43	12	-51
11611	-99	-18	1922	-43	12	-51
11616	-80	-34	1928	-43	12	-51
11621	-80	-37	1913	-43	12	-51
11626	-86	-36	1938	-43	12	-51
11631	-80	-20	1938	32	39	-89
11636	-90	-36	1917	32	39	-89
11641	-74	-24	1926	32	39	-89
11646	-104	-23	1926	32	39	-89
11651	-89	-29	1929	32	39	-89
11656	-89	-29	1929	32	39	-89
11661	-76	-27	1925	-194	-41	-10
11666	-84	-35	1927	-194	-41	-10
11671	-88	-32	1934	-194	-41	-10
11676	-84	-29	1920	-194	-41	-10
11681	-82	-29	1914	-194	-41	-10
11686	-86	-33	1914	-194	-41	-10
11691	-96	-30	1911	-83	-4	17
11696	-104	-31	1933	-83	-4	17
11701	-81	-45	1937	-83	-4	17
11706	-75	-52	1943	-83	-4	17
11711	-88	-38	1941	-83	-4	17
11716	-87	-30	1932	-83	-4	17
11721	-92	-42	1935	7	49	-7
11726	-83	-55	1936	7	49	-7
11731	-81	-53	1918	7	49	-7
11736	-78	-45	1942	7	49	-7
11741	-81	-52	1927	7	49	-7
11746	-78	-50	1926	7	49	-7
11751	-85	-38	1927	-50	25	90
11756	-80	-54	1915	-50	25	90
11761	-85	-56	1921	-50	25	90
11766	-84	-54	1929	-50	25	90
11771	-87	-55	1907	-50	25	90
11776	-95	-34	1908	-50	25	90
11781	-93	-35	1930	-50	25	90
11786	-77	-63	1925	31	42	-65
11791	-76	-62	1961	31	42	-65
11796	-91	-63	1940	31	42	-65
11801	-103	-35	1925	31	42	-65
11806	-89	-36	1917	31	42	-65
11811	-92	-46	1913	31	42	-65
11816	-104	-34	1910	-77	-112	34
11821	-96	-30	1912	-77	-112	34
11826	-90	-34	1924	-77	-112	34
11831	-96	-37	1918	-77	-112	34
11836	-96	-32	1924	-77	-112	34
11841	-89	-41	1921	-77	-112	34
11846	-96	-44	1927	-65	-31	-18
11851	-94	-54	1927	-65	-31	-18
11856	-90	-50	1927	-65	-31	-18
11861	-91	-45	1932	-65	-31	-18
11866	-85	-52	1922	-65	-31	-18
11871	-93	-49	1919	-65	-31	-18
11876	-82	-52	1922	5	26	-12
11881	-87	-58	1935	5	26	-12
11886	-92	-63	1930	5	26	-12
11891	-91	-53	1925	5	26	-12
11896	-87	-49	1925	5	26	-12
11901	-93	-48	1922	5	26	-12
11906	-93	-65	1927	-56	13	71
11911	-94	-48	1920	-56	13	71
11916	-87	-37	1912	-56	13	71
11921	-92	-40	1910	-56	13	71
11926	-91	-49	1937	-56	13	71
11931	-94	-47	1928	-56	13	71
11936	-89	-56	1920	-56	13	71
11941	-89	-56	1935	-63	26	-93
11946	-92	-51	1926	-63	26	-93
11951	-92	-49	1920	-63	26	-93
11956	-92	-45	1934	-63	26	-93
11961	-96	-45	1913	-63	26	-93
11966	-88	-49	1922	-63	26	-93
11971	-92	-42	1921	-27	126	18
11976	-104	-36	1922	-27	126	18
11981	-107	-46	1933	-27	126	18
11986	-99	-49	1922	-27	126	18
11991	-96	-59	1927	-27	126	18
11996	-94	-51	1923	-27	126	18
12001	-105	-42	1915	160	319	-163
12006	-96	-55	1927	160	319	-163
12011	-106	-50	1915	160	319	-163
12016	-43	-89	2036	160	319	-163
12021	-94	-56	1893	160	319	-163
12026	-87	-78	1873	160	319	-163
12031	-155	-13	1835	55	153	-58
12036	-125	-40	1916	55	153	-58
12041	-144	-35	1886	55	153	-58
12046	-148	-53	1907	55	153	-58
12051	-150	-52	1921	55	153	-58
12056	-154	-51	1915	55	153	-58
12061	-154	-52	1924	-37	-57	65
12066	-167	-47	1945	-37	-57	65
12071	-170	-45	1910	-37	-57	65
12076	-181	-43	1896	-37	-57	65
12081	-187	-37	1900	-37	-57	65
12086	-182	-45	1907	-37	-57	65
12091	-194	-37	1900	-37	-57	65
12096	-180	-39	1911	-49	-102	-58
12101	-180	-43	1911	-49	-102	-58
12106	-183	-49	1914	-49	-102	-58
12111	-170	-49	1911	-49	-102	-58
12116	-180	-35	1931	-49	-102	-58
12121	-164	-39	1927	-49	-102	-58
12126	-164	-46	1913	-11	-132	65
12131	-166	-44	1933	-11	-132	65
12136	-157	-52	1920	-11	-132	65
12141	-150	-55	1942	-11	-132	65
12146	-152	-48	1935	-11	-132	65
12151	-155	-43	1911	-11	-132	65
12156	-152	-45	1917	-14	5	-90
12161	-160	-44	1908	-14	5	-90
12166	-156	-44	1895	-14	5	-90
12171	-155	-51	1928	-14	5	-90
12176	-149	-45	1925	-14	5	-90
12181	-140	-57	1940	-14	5	-90
12186	-140	-48	1946	-10	-34	64
12191	-156	-36	1915	-10	-34	64
12196	-139	-48	1933	-10	-34	64
12201	-138	-46	1916	-10	-34	64
12206	-155	-71	1931	-10	-34	64
12211	-145	-48	1923	-10	-34	64
12216	-133	-32	1923	-46	41	-39
12221	-154	-47	1916	-46	41	-39
12226	-150	-64	1924	-46	41	-39
12231	-146	-44	1945	-46	41	-39
12236	-131	-38	1935	-46	41	-39
12241	-146	-45	1910	-46	41	-39
12246	-138	-47	1933	-46	41	-39
12251	-159	-46	1913	-117	-18	-21
12256	-146	-49	1922	-117	-18	-21
12261	-164	-46	1904	-117	-18	-21
12266	-143	-46	1927	-117	-18	-21
12271	-147	-36	1926	-117	-18	-21
12276	-145	-39	1904	-117	-18	-21
12281	-143	-46	1919	-30	88	1
12286	-140	-47	1918	-30	88	1
12291	-143	-39	1928	-30	88	1
12296	-147	-52	1930	-30	88	1
12301	-148	-42	1919	-30	88	1
12306	-156	-43	1910	-30	88	1
12311	-136	-35	1913	-16	20	-26
12316	-150	-43	1912	-16	20	-26
12321	-143	-37	1917	-16	20	-26
12326	-142	-34	1908	-16	20	-26
12331	-139	-41	1921	-16	20	-26
12336	-142	-42	1913	-16	20	-26
12341	-136	-41	1912	-8	-84	20
12346	-142	-33	1910	-8	-84	20
12351	-149	-30	1921	-8	-84	20
12356	-144	-33	1923	-8	-84	20
12361	-130	-31	1917	-8	-84	20
12366	-128	-54	1917	-8	-84	20
12371	-124	-53	1962	-74	51	-75
12376	-124	-44	1924	-74	51	-75
12381	-122	-43	1913	-74	51	-75
12386	-126	-33	1919	-74	51	-75
12391	-119	-52	1920	-74	51	-75
12396	-108	-46	1924	-74	51	-75
12401	-124	-49	1918	-74	51	-75
12406	-126	-42	1919	-86	-85	-27
12411	-132	-37	1911	-86	-85	-27
12416	-104	-50	1915	-86	-85	-27
12421	-132	-41	1907	-86	-85	-27
12426	-125	-33	1909	-86	-85	-27
12431	-147	-43	1928	-86	-85	-27
12436	-121	-43	1923	-24	-5	-2
12441	-119	-30	1919	-24	-5	-2
12446	-109	-58	1940	-24	-5	-2
12451	-111	-48	1956	-24	-5	-2
12456	-112	-55	1914	-24	-5	-2
12461	-116	-53	1914	-24	-5	-2
12466	-101	-39	1926	-62	-5	-27
12471	-133	-45	1921	-62	-5	-27
12476	-117	-43	1923	-62	-5	-27
12481	-136	-41	1903	-62	-5	-27
12486	-133	-46	1909	-62	-5	-27
12491	-115	-56	1918	-62	-5	-27
12496	-117	-43	1942	-92	-89	-78
12501	-114	-46	1911	-92	-89	-78
12506	-122	-52	1905	-92	-89	-78
12511	-114	-45	1913	-92	-89	-78
12516	-125	-38	1918	-92	-89	-78
12521	-110	-49	1921	-92	-89	-78
12526	-117	-46	1926	30	49	21
12531	-111	-52	1916	30	49	21
12536	-114	-53	1936	30	49	21
12541	-111	-63	1934	30	49	21
12546	-103	-68	1957	30	49	21
12551	-114	-58	1930	30	49	21
12556	-104	-53	1932	30	49	21
12561	-102	-57	1925	-16	2	80
12566	-105	-56	1917	-16	2	80
12571	-116	-50	1910	-16	2	80
12576	-102	-48	1926	-16	2	80
12581	-107	-57	1917	-16	2	80
12586	-109	-53	1905	-16	2	80
12591	-113	-57	1912	-24	-79	-59
12596	-99	-60	1922	-24	-79	-59
12601	-106	-65	1931	-24	-79	-59
12606	-109	-50	1905	-24	-79	-59
12611	-109	-49	1916	-24	-79	-59
12616	-111	-54	1936	-24	-79	-59
12621	-100	-57	1927	-50	13	12
12626	-104	-49	1919	-50	13	12
12631	-106	-71	1933	-50	13	12
12636	-102	-70	1939	-50	13	12
12641	-107	-61	1935	-50	13	12
12646	-106	-62	1924	-50	13	12
12651	-112	-51	1913	-37	-2	-61
12656	-101	-59	1934	-37	-2	-61
12661	-104	-62	1924	-37	-2	-61
12666	-102	-54	1928	-37	-2	-61
12671	-92	-53	1923	-37	-2	-61
12676	-92	-56	1918	-37	-2	-61
12681	-103	-48	1929	-46	3	5
12686	-110	-51	1910	-46	3	5
12691	-99	-56	1918	-46	3	5
12696	-99	-55	1941	-46	3	5
12701	-94	-57	1930	-46	3	5
12706	-94	-53	1912	-46	3	5
12711	-100	-56	1917	-46	3	5
12716	-102	-59	1916	14	-1	97
12721	-97	-53	1914	14	-1	97
12726	-95	-49	1928	14	-1	97
12731	-108	-51	1926	14	-1	97
12736	-101	-61	1931	14	-1	97
12741	-107	-55	1924	14	-1	97
12746	-104	-68	1922	-46	-14	-62
12751	-88	-69	1919	-46	-14	-62
12756	-113	-64	1924	-46	-14	-62
12761	-101	-48	1925	-46	-14	-62
12766	-254	45	1923	-46	-14	-62
12771	-69	-58	1935	-46	-14	-62
12776	-113	-53	1912	32	-9	36
12781	-87	-60	1920	32	-9	36
12786	-104	-55	1933	32	-9	36
12791	-92	-50	1916	32	-9	36
12796	-94	-57	1926	32	-9	36
12801	-92	-66	1935	32	-9	36
12806	-113	-59	1919	-69	-145	-14
12811	-98	-60	1927	-69	-145	-14
12816	-87	-56	1919	-69	-145	-14
12821	-69	-59	1901	-69	-145	-14
12826	-77	-49	1927	-69	-145	-14
12831	-99	-48	1905	-69	-145	-14
12836	-97	-55	1933	-44	51	-144
12841	-106	-51	1927	-44	51	-144
12846	-82	-59	1943	-44	51	-144
12851	-86	-59	1941	-44	51	-144
12856	-81	-71	1936	-44	51	-144
12861	-81	-63	1908	-44	51	-144
12866	-96	-59	1935	-44	51	-144
12871	-67	-62	1921	-43	29	-7
12876	-87	-48	1926	-43	29	-7
12881	-83	-64	1926	-43	29	-7
12886	-79	-67	1928	-43	29	-7
12891	-84	-66	1936	-43	29	-7
12896	-83	-69	1934	-43	29	-7
12901	-91	-57	1916	19	3	-144
12906	-94	-56	1932	19	3	-144
12911	-86	-55	1932	19	3	-144
12916	-82	-52	1939	19	3	-144
12921	-82	-56	1933	19	3	-144
12926	-88	-64	1933	19	3	-144
12931	-61	-70	1938	-21	3	36
12936	-73	-48	1919	-21	3	36
12941	-80	-63	1922	-21	3	36
12946	-79	-62	1917	-21	3	36
12951	-92	-57	1943	-21	3	36
12956	-89	-73	1928	-21	3	36
12961	-79	-58	1928	-45	-28	-62
12966	-71	-60	1909	-45	-28	-62
12971	-75	-69	1908	-45	-28	-62
12976	-92	-44	1924	-45	-28	-62
12981	-84	-54	1924	-45	-28	-62
12986	-87	-58	1925	-45	-28	-62
12991	-85	-49	1927	-37	12	-12
12996	-85	-50	1931	-37	12	-12
13001	-69	-59	1926	-37	12	-12
13006	-74	-57	1924	-37	12	-12
13011	-75	-61	1928	-37	12	-12
13016	-76	-61	1924	-37	12	-12
13021	-80	-49	1938	-37	12	-12
13026	-77	-66	1921	-46	-40	-14
13031	-82	-61	1915	-46	-40	-14
13036	-85	-57	1920	-46	-40	-14
13041	-83	-58	1928	-46	-40	-14
13046	-79	-59	1920	-46	-40	-14
13051	-79	-53	1935	-46	-40	-14
13056	-78	-65	1918	-44	-26	-5
13061	-75	-68	1940	-44	-26	-5
13066	-83	-64	1938	-44	-26	-5
13071	-79	-64	1932	-44	-26	-5
13076	-69	-61	1930	-44	-26	-5
13081	-80	-51	1929	-44	-26	-5
13086	-84	-53	1920	-102	23	-24
13091	-83	-57	1923	-102	23	-24
13096	-81	-57	1916	-102	23	-24
13101	-92	-59	1917	-102	23	-24
13106	-87	-55	1913	-102	23	-24
13111	-91	-52	1939	-102	23	-24
13116	-82	-54	1919	-6	6	-93
13121	-88	-66	1934	-6	6	-93
13126	-77	-58	1927	-6	6	-93
13131	-75	-64	1929	-6	6	-93
13136	-73	-61	1935	-6	6	-93
13141	-72	-58	1922	-6	6	-93
13146	-77	-55	1919	-46	-21	-17
13151	-79	-48	1922	-46	-21	-17
13156	-76	-58	1937	-46	-21	-17
13161	-82	-58	1917	-46	-21	-17
13166	-82	-52	1925	-46	-21	-17
13171	-74	-57	1917	-46	-21	-17
13176	-80	-57	1919	-46	-21	-17
13181	-92	-58	1916	-36	-27	-20
13186	-84	-58	1918	-36	-27	-20
13191	-82	-58	1932	-36	-27	-20
13196	-88	-59	1935	-36	-27	-20
13201	-78	-52	1930	-36	-27	-20
13206	-73	-64	1921	-36	-27	-20
13211	-87	-55	1928	-14	26	-17
13216	-79	-58	1921	-14	26	-17
13221	-87	-62	1921	-14	26	-17
13226	-86	-59	1927	-14	26	-17
13231	-87	-56	1933	-14	26	-17
13236	-83	-58	1935	-14	26	-17
13241	-82	-66	1927	-86	28	-64
13246	-81	-57	1940	-86	28	-64
13251	-66	-55	1931	-86	28	-64
13256	-80	-55	1912	-86	28	-64
13261	-73	-55	1930	-86	28	-64
13266	-76	-61	1924	-86	28	-64
13271	-75	-58	1917	-55	19	7
13276	-86	-64	1918	-55	19	7
13281	-78	-53	1919	-55	19	7
13286	-81	-47	1926	-55	19	7
13291	-75	-63	1936	-55	19	7
13296	-75	-53	1930	-55	19	7
13301	-75	-53	1927	-34	16	70
13306	-75	-68	1913	-34	16	70
13311	-74	-65	1928	-34	16	70
13316	-75	-59	1935	-34	16	70
13321	-73	-63	1925	-34	16	70
13326	-89	-65	1917	-34	16	70
13331	-90	-53	1911	-34	16	70
13336	-82	-52	1927	-17	21	-42
13341	-93	-78	1889	-17	21	-42
13346	-76	-58	1923	-17	21	-42
13351	-83	-65	1926	-17	21	-42
13356	-73	-54	1912	-17	21	-42
13361	-73	-58	1927	-17	21	-42
13366	-80	-51	1924	-13	-28	84
13371	-80	-53	1916	-13	-28	84
13376	-81	-57	1922	-13	-28	84
13381	-77	-58	1935	-13	-28	84
13386	-78	-58	1904	-13	-28	84
13391	-88	-44	1930	-13	-28	84
13396	-74	-53	1921	-26	-78	-49
13401	-76	-50	1922	-26	-78	-49
13406	-73	-55	1932	-26	-78	-49
13411	-76	-62	1937	-26	-78	-49
13416	-73	-71	1928	-26	-78	-49
13421	-81	-63	1934	-26	-78	-49
13426	-85	-55	1926	-33	-7	-40
13431	-73	-58	1916	-33	-7	-40
13436	-88	-62	1917	-33	-7	-40
13441	-73	-58	1926	-33	-7	-40
13446	-81	-72	1933	-33	-7	-40
13451	-70	-59	1926	-33	-7	-40
13456	-73	-52	1922	-19	33	94
13461	-78	-59	1941	-19	33	94
13466	-69	-60	1925	-19	33	94
13471	-88	-61	1921	-19	33	94
13476	-75	-57	1934	-19	33	94
13481	-78	-52	1921	-19	33	94
13486	-73	-52	1928	-19	33	94
13491	-77	-55	1921	-28	5	-118
13496	-79	-57	1944	-28	5	-118
13501	-76	-59	1918	-28	5	-118
13506	-68	-60	1926	-28	5	-118
13511	-71	-52	1938	-28	5	-118
13516	-78	-59	1921	-28	5	-118
13521	-82	-69	1917	-27	-68	99
13526	-82	-70	1925	-27	-68	99
13531	-70	-60	1924	-27	-68	99
13536	-75	-59	1935	-27	-68	99
13541	-80	-52	1926	-27	-68	99
13546	-67	-57	1936	-27	-68	99
13551	-73	-52	1924	-26	-40	-33
13556	-71	-59	1917	-26	-40	-33
13561	-74	-65	1940	-26	-40	-33
13566	-67	-55	1920	-26	-40	-33
13571	-82	-49	1935	-26	-40	-33
13576	-74	-56	1920	-26	-40	-33
13582	-73	-57	1928	60	41	1
13586	-68	-62	1922	60	41	1
13591	-69	-50	1938	60	41	1
13596	-70	-47	1922	60	41	1
13601	-68	-54	1929	60	41	1
13606	-86	-56	1924	60	41	1
13611	-67	-66	1945	-237	3	130
13616	-86	-61	1914	-237	3	130
13621	-71	-53	1909	-237	3	130
13626	-89	-46	1905	-237	3	130
13631	-82	-51	1941	-237	3	130
13636	-91	-54	1895	-237	3	130
13641	-116	-29	1894	-237	3	130
13646	-83	-57	1935	-80	82	-89
13651	-98	-44	1923	-80	82	-89
13656	-56	-64	1957	-80	82	-89
13661	-99	64	1854	-80	82	-89
13666	-78	-67	1944	-80	82	-89
13671	-93	-65	1931	-80	82	-89
13676	-61	-82	1926	-210	-4	-15
13681	-64	-72	1906	-210	-4	-15
13686	-95	-71	1908	-210	-4	-15
13691	-96	-66	1892	-210	-4	-15
13696	-83	-79	1911	-210	-4	-15
13701	-68	-86	1925	-210	-4	-15
13706	-78	-88	1932	-9	39	-86
13711	-89	-90	1938	-9	39	-86
13716	-74	-80	1935	-9	39	-86
13721	-81	-85	1932	-9	39	-86
13726	-74	-88	1932	-9	39	-86
13731	-87	-89	1938	-9	39	-86
13736	-91	-79	1904	-20	9	26
13741	-86	-80	1932	-20	9	26
13746	-83	-78	1929	-20	9	26
13751	-80	-84	1931	-20	9	26
13756	-85	-99	1922	-20	9	26
13761	-82	-93	1924	-20	9	26
13766	-81	-90	1931	-5	-22	17
13771	-84	-86	1927	-5	-22	17
13776	-86	-96	1902	-5	-22	17
13781	-80	-97	1918	-5	-22	17
13786	-78	-97	1922	-5	-22	17
13791	-83	-93	1929	-5	-22	17
13796	-84	-86	1913	-5	-22	17
13801	-90	-73	1912	-83	43	-59
13806	-85	-84	1915	-83	43	-59
13811	-80	-86	1922	-83	43	-59
13816	-72	-88	1911	-83	43	-59
13821	-90	-94	1917	-83	43	-59
13826	-81	-91	1921	-83	43	-59
13831	-84	-86	1920	-73	61	-55
13836	-85	-88	1912	-73	61	-55
13841	-88	-97	1917	-73	61	-55
13846	-82	-86	1920	-73	61	-55
13851	-84	-89	1918	-73	61	-55
13856	-82	-86	1923	-73	61	-55
13861	-81	-85	1927	-28	122	-10
13866	-90	-96	1930	-28	122	-10
13871	-85	-95	1919	-28	122	-10
13876	-95	-95	1920	-28	122	-10
13881	-86	-97	1936	-28	122	-10
13886	-85	-82	1926	-28	122	-10
13891	-87	-96	1923	-36	49	89
13896	-80	-94	1914	-36	49	89
13901	-90	-86	1915	-36	49	89
13906	-80	-90	1917	-36	49	89
13911	-88	-83	1938	-36	49	89
13916	-86	-97	1926	-36	49	89
13921	-91	-92	1912	-15	28	15
13926	-85	-102	1940	-15	28	15
13931	-88	-94	1917	-15	28	15
13936	-84	-92	1926	-15	28	15
13941	-83	-92	1932	-15	28	15
13946	-93	-90	1911	-15	28	15
13951	-90	-91	1921	-15	28	15
13956	-93	-94	1919	-31	3	34
13961	-96	-80	1923	-31	3	34
13966	-94	-86	1921	-31	3	34
13971	-90	-99	1911	-31	3	34
13976	-91	-87	1919	-31	3	34
13981	-88	-95	1929	-31	3	34
13986	-86	-98	1921	-69	-38	-42
13991	-93	-89	1921	-69	-38	-42
13996	-91	-90	1930	-69	-38	-42
14001	-94	-87	1925	-69	-38	-42
14006	-96	-90	1915	-69	-38	-42
14011	-93	-88	1916	-69	-38	-42
14016	-90	-94	1927	-71	-4	-14
14021	-92	-94	1930	-71	-4	-14
14026	-84	-94	1914	-71	-4	-14
14031	-89	-82	1918	-71	-4	-14
14036	-87	-89	1914	-71	-4	-14
14041	-85	-89	1910	-71	-4	-14
14046	-81	-106	1931	-69	15	-21
14051	-103	-93	1926	-69	15	-21
14056	-89	-91	1927	-69	15	-21
14061	-82	-96	1938	-69	15	-21
14066	-92	-88	1915	-69	15	-21
14071	-97	-94	1937	-69	15	-21
14076	-99	-95	1914	-51	-15	40
14081	-94	-100	1933	-51	-15	40
14086	-79	-95	1930	-51	-15	40
14091	-79	-63	1919	-51	-15	40
14096	-97	-115	1926	-51	-15	40
14101	-81	-94	1928	-51	-15	40
14106	-89	-104	1936	-51	-15	40
14111	-94	-92	1925	-74	10	86
14116	-92	-100	1920	-74	10	86
14121	-90	-91	1915	-74	10	86
14126	-88	-93	1923	-74	10	86
14131	-88	-88	1917	-74	10	86
14136	-94	-100	1914	-74	10	86
14141	-89	-91	1923	13	-2	-65
14146	-93	-85	1908	13	-2	-65
14151	-89	-98	1907	13	-2	-65
14156	-85	-109	1938	13	-2	-65
14161	-101	-102	1924	13	-2	-65
14166	-101	-87	1919	13	-2	-65
14171	-99	-89	1922	-46	23	-58
14176	-93	-92	1911	-46	23	-58
14181	-92	-96	1902	-46	23	-58
14186	-93	-106	1921	-46	23	-58
14191	-92	-98	1909	-46	23	-58
14196	-95	-86	1920	-46	23	-58
14201	-88	-88	1919	-20	1	-23
14206	-93	-88	1919	-20	1	-23
14211	-94	-97	1918	-20	1	-23
14216	-96	-106	1917	-20	1	-23
14221	-96	-95	1928	-20	1	-23
14226	-89	-95	1925	-20	1	-23
14231	-87	-94	1918	-28	-24	-7
14236	-91	-94	1927	-28	-24	-7
14241	-90	-97	1926	-28	-24	-7
14246	-97	-100	1924	-28	-24	-7
14251	-97	-94	1910	-28	-24	-7
14256	-91	-95	1932	-28	-24	-7
14261	-86	-100	1919	-28	-24	-7
14266	-84	-95	1917	-79	36	-51
14271	-93	-103	1908	-79	36	-51
14276	-89	-109	1930	-79	36	-51
14281	-92	-99	1925	-79	36	-51
14286	-93	-98	1924	-79	36	-51
14291	-91	-103	1914	-79	36	-51
14296	-91	-101	1912	-19	27	-78
14301	-96	-108	1929	-19	27	-78
14306	-86	-105	1923	-19	27	-78
14311	-89	-100	1921	-19	27	-78
14316	-90	-95	1916	-19	27	-78
14321	-78	-104	1928	-19	27	-78
14326	-81	-101	1916	-27	-41	56
14331	-88	-106	1928	-27	-41	56
14336	-86	-107	1923	-27	-41	56
14341	-91	-92	1920	-27	-41	56
14346	-86	-105	1927	-27	-41	56
14351	-89	-100	1913	-27	-41	56
14356	-91	-95	1919	-26	-10	-8
14361	-80	-106	1922	-26	-10	-8
14366	-80	-101	1937	-26	-10	-8
14371	-91	-96	1923	-26	-10	-8
14376	-88	-101	1913	-26	-10	-8
14381	-86	-98	1929	-26	-10	-8
14386	-93	-108	1923	-21	42	-100
14391	-92	-105	1906	-21	42	-100
14396	-89	-105	1909	-21	42	-100
14401	-88	-109	1920	-21	42	-100
14406	-93	-104	1920	-21	42	-100
14411	-89	-100	1930	-21	42	-100
14416	-84	-101	1928	-21	42	-100
14421	-88	-103	1917	-37	28	-49
14426	-94	-101	1927	-37	28	-49
14431	-95	-104	1906	-37	28	-49
14436	-80	-100	1925	-37	28	-49
14441	-89	-100	1924	-37	28	-49
14446	-95	-100	1924	-37	28	-49
14451	-88	-98	1923	-12	-26	-56
14456	-90	-100	1918	-12	-26	-56
14461	-96	-89	1913	-12	-26	-56
14466	-96	-101	1919	-12	-26	-56
14471	-90	-97	1918	-12	-26	-56
14476	-97	-96	1921	-12	-26	-56
14481	-97	-100	1918	25	0	84
14486	-90	-98	1938	25	0	84
14491	-71	-107	1998	25	0	84
14496	-103	-98	1894	25	0	84
14501	-90	-94	1927	25	0	84
14506	-91	-106	1924	25	0	84
14511	-98	-91	1915	12	25	-77
14516	-92	-96	1918	12	25	-77
14521	-101	-87	1923	12	25	-77
14526	-105	-81	1910	12	25	-77
14531	-99	-94	1920	12	25	-77
14536	-94	-90	1924	12	25	-77
14541	-88	-86	1930	-66	16	-26
14546	-84	-91	1913	-66	16	-26
14551	-92	-93	1935	-66	16	-26
14556	-93	-91	1916	-66	16	-26
14561	-95	-91	1934	-66	16	-26
14566	-93	-92	1910	-66	16	-26
14571	-93	-97	1928	-66	16	-26
14576	-84	-86	1921	-24	-2	-56
14581	-85	-84	1930	-24	-2	-56
14586	-89	-84	1918	-24	-2	-56
14591	-90	-90	1927	-24	-2	-56
14596	-90	-88	1915	-24	-2	-56
14601	-88	-97	1927	-24	-2	-56
14606	-95	-89	1930	-80	31	15
14611	-97	-87	1919	-80	31	15
14616	-90	-103	1931	-80	31	15
14621	-81	-81	1908	-80	31	15
14626	-93	-104	1914	-80	31	15
14631	-83	-75	1922	-80	31	15
14636	-93	-99	1922	-60	51	-24
14641	-87	-81	1920	-60	51	-24
14646	-86	-86	1926	-60	51	-24
14651	-87	-86	1918	-60	51	-24
14656	-86	-96	1931	-60	51	-24
14661	-88	-96	1919	-60	51	-24
14666	-87	-86	1916	-21	32	-56
14671	-85	-81	1926	-21	32	-56
14676	-93	-94	1925	-21	32	-56
14681	-88	-103	1915	-21	32	-56
14686	-86	-96	1928	-21	32	-56
14691	-84	-103	1931	-21	32	-56
14696	-84	-92	1922	63	-16	-103
14701	-82	-92	1931	63	-16	-103
14706	-86	-95	1921	63	-16	-103
14711	-86	-88	1917	63	-16	-103
14716	-89	-82	1904	63	-16	-103
14721	-83	-88	1903	63	-16	-103
14726	-48	-122	1922	63	-16	-103
14731	-68	-108	1925	-18	-41	-27
14736	-89	-89	1925	-18	-41	-27
14741	-95	-90	1925	-18	-41	-27
14746	-87	-90	1922	-18	-41	-27
14751	-83	-82	1911	-18	-41	-27
14756	-82	-86	1934	-18	-41	-27
14761	-80	-91	1929	-1	-52	43
14766	-86	-90	1934	-1	-52	43
14771	-77	-93	1921	-1	-52	43
14776	-84	-104	1920	-1	-52	43
14781	-75	-80	1939	-1	-52	43
14786	-83	-84	1916	-1	-52	43
14791	-78	-98	1915	-7	45	-30
14796	-80	-87	1917	-7	45	-30
14801	-90	-85	1925	-7	45	-30
14806	-80	-87	1925	-7	45	-30
14811	-79	-83	1925	-7	45	-30
14816	-85	-76	1915	-7	45	-30
14821	-82	-88	1930	-30	65	-43
14826	-78	-95	1914	-30	65	-43
14831	-72	-95	1925	-30	65	-43
14836	-68	-91	1921	-30	65	-43
14841	-77	-80	1919	-30	65	-43
14846	-88	-85	1912	-30	65	-43
14851	-68	-93	1918	-35	-14	87
14856	-70	-89	1922	-35	-14	87
14861	-87	-88	1924	-35	-14	87
14866	-69	-90	1930	-35	-14	87
14871	-78	-87	1924	-35	-14	87
14876	-79	-81	1922	-35	-14	87
14881	-72	-92	1929	-35	-14	87
14886	-77	-84	1926	-4	9	-59
14891	-82	-73	1902	-4	9	-59
14896	-69	-81	1921	-4	9	-59
14901	-66	-84	1926	-4	9	-59
14906	-74	-84	1934	-4	9	-59
14911	-69	-93	1924	-4	9	-59
14916	-86	-80	1935	-38	19	55
14921	-86	-88	1924	-38	19	55
14926	-83	-82	1926	-38	19	55
14931	-71	-89	1923	-38	19	55
14936	-88	-89	1926	-38	19	55
14941	-78	-98	1939	-38	19	55
14946	-128	-11	1850	12	-24	-18
14951	-69	-125	1958	12	-24	-18
14956	-66	-60	1900	12	-24	-18
14961	-64	-107	1947	12	-24	-18
14966	-90	-78	1926	12	-24	-18
14971	-82	-89	1921	12	-24	-18
14976	-84	-84	1931	-95	33	14
14981	-64	-76	1914	-95	33	14
14986	-42	-115	1923	-95	33	14
14991	-62	-111	1918	-95	33	14
14996	-77	-90	1914	-95	33	14
15001	-33	-103	1932	-95	33	14
15006	-95	-116	1931	-44	35	75
15011	-127	-63	1918	-44	35	75
15016	-79	-89	1931	-44	35	75
15021	-83	-90	1915	-44	35	75
15026	-96	-89	1929	-44	35	75
15031	-78	-95	1902	-44	35	75
15036	-76	-100	1920	-44	35	75
15041	-75	-95	1928	-11	12	-52
15046	-74	-91	1926	-11	12	-52
15051	-82	-92	1927	-11	12	-52
15056	-81	-97	1918	-11	12	-52
15061	-77	-89	1919	-11	12	-52
15066	-66	-107	1906	-11	12	-52
15071	-82	-89	1922	-11	15	30
15076	-113	-76	1916	-11	15	30
15081	-83	-86	1924	-11	15	30
15086	-86	-97	1915	-11	15	30
15091	-83	-92	1927	-11	15	30
15096	-73	-95	1915	-11	15	30
15101	-77	-87	1918	-46	1	11
15106	-72	-96	1923	-46	1	11
15111	-85	-96	1913	-46	1	11
15116	-86	-92	1911	-46	1	11
15121	-76	-93	1914	-46	1	11
15126	-85	-85	1918	-46	1	11
15131	-88	-83	1935	-25	-45	17
15136	-92	-94	1929	-25	-45	17
15141	-88	-89	1895	-25	-45	17
15146	-99	-81	1931	-25	-45	17
15151	-84	-95	1921	-25	-45	17
15156	-85	-94	1930	-25	-45	17
15161	-76	-95	1912	27	8	-20
15166	-83	-96	1930	27	8	-20
15171	-81	-93	1936	27	8	-20
15176	-87	-96	1925	27	8	-20
15181	-86	-88	1922	27	8	-20
15186	-85	-81	1915	27	8	-20
15191	-76	-89	1911	27	8	-20
15196	-85	-94	1910	-36	61	31
15201	-81	-82	1913	-36	61	31
15206	-90	-84	1922	-36	61	31
15211	-90	-83	1917	-36	61	31
15216	-80	-86	1913	-36	61	31
15221	-78	-92	1923	-36	61	31
15226	-78	-96	1919	-34	69	-55
15231	-90	-89	1923	-34	69	-55
15236	-100	-82	1911	-34	69	-55
15241	-86	-80	1937	-34	69	-55
15246	-77	-79	1913	-34	69	-55
15251	-82	-80	1920	-34	69	-55
15256	-82	-91	1940	-22	-12	-62
15261	-91	-84	1908	-22	-12	-62
15266	-84	-91	1920	-22	-12	-62
15271	-80	-75	1927	-22	-12	-62
15276	-91	-77	1921	-22	-12	-62
15281	-88	-80	1912	-22	-12	-62
15286	-92	-76	1919	-18	13	53
15291	-76	-80	1903	-18	13	53
15296	-81	-83	1933	-18	13	53
15301	-89	-76	1911	-18	13	53
15306	-88	-75	1922	-18	13	53
15311	-78	-85	1923	-18	13	53
15316	-83	-82	1918	-80	-1	-2
15321	-84	-74	1937	-80	-1	-2
15326	-74	-74	1931	-80	-1	-2
15331	-78	-79	1932	-80	-1	-2
15336	-83	-80	1909	-80	-1	-2
15341	-80	-84	1913	-80	-1	-2
15346	-74	-85	1931	-80	-1	-2
15351	-87	-79	1932	-10	18	-21
15356	-76	-73	1913	-10	18	-21
15361	-75	-70	1933	-10	18	-21
15366	-87	-70	1915	-10	18	-21
15371	-80	-85	1933	-10	18	-21
15376	-85	-77	1927	-10	18	-21
15381	-75	-75	1941	-44	22	-20
15386	-72	-69	1914	-44	22	-20
15391	-72	-85	1917	-44	22	-20
15396	-80	-77	1913	-44	22	-20
15401	-82	-82	1921	-44	22	-20
15406	-81	-79	1918	-44	22	-20
15411	-79	-79	1930	-37	-34	-56
15416	-71	-74	1924	-37	-34	-56
15421	-77	-59	1928	-37	-34	-56
15426	-79	-77	1915	-37	-34	-56
15431	-81	-78	1925	-37	-34	-56
15436	-78	-72	1918	-37	-34	-56
15441	-70	-76	1946	-76	21	15
15446	-77	-72	1923	-76	21	15
15451	-69	-72	1913	-76	21	15
15456	-82	-74	1933	-76	21	15
15461	-79	-85	1915	-76	21	15
15466	-75	-80	1919	-76	21	15
15471	-83	-77	1913	2	-14	-29
15476	-83	-79	1914	2	-14	-29
15481	-74	-70	1924	2	-14	-29
15486	-87	-77	1921	2	-14	-29
15491	-79	-80	1924	2	-14	-29
15496	-88	-77	1912	2	-14	-29
15501	-75	-71	1917	2	-14	-29
15506	-84	-67	1918	18	-34	20
15511	-72	-66	1909	18	-34	20
15516	-85	-84	1917	18	-34	20
15521	-83	-70	1925	18	-34	20
15526	-79	-73	1919	18	-34	20
15531	-79	-80	1919	18	-34	20
15536	-69	-77	1905	-10	2	30
15541	-74	-81	1916	-10	2	30
15546	-73	-89	1898	-10	2	30
15551	-76	-80	1946	-10	2	30
15556	-76	-74	1923	-10	2	30
15561	-85	-72	1918	-10	2	30
15566	-79	-76	1921	-25	-16	-20
15571	-74	-73	1932	-25	-16	-20
15576	-73	-79	1906	-25	-16	-20
15581	-74	-75	1916	-25	-16	-20
15586	-77	-76	1933	-25	-16	-20
15591	-71	-79	1924	-25	-16	-20
15596	-75	-73	1919	-6	45	-52
15601	-93	-64	1928	-6	45	-52
15606	-88	-87	1923	-6	45	-52
15611	-81	-74	1930	-6	45	-52
15616	-89	-63	1916	-6	45	-52
15621	-81	-66	1911	-6	45	-52
15626	-75	-74	1914	-44	6	-103
15631	-78	-81	1925	-44	6	-103
15636	-76	-74	1910	-44	6	-103
15641	-83	-67	1917	-44	6	-103
15646	-82	-73	1913	-44	6	-103
15651	-81	-74	1937	-44	6	-103
15656	-77	-70	1913	-44	6	-103
15661	-82	-79	1916	-106	16	71
15666	-75	-73	1937	-106	16	71
15671	-78	-72	1931	-106	16	71
15676	-81	-74	1926	-106	16	71
15681	-81	-70	1930	-106	16	71
15686	-84	-69	1928	-106	16	71
15691	-81	-81	1919	15	-30	-33
15696	-82	-68	1906	15	-30	-33
15701	-88	-75	1922	15	-30	-33
15706	-73	-70	1916	15	-30	-33
15711	-79	-70	1919	15	-30	-33
15716	-79	-71	1919	15	-30	-33
15721	-85	-74	1916	-4	5	21
15726	-79	-71	1914	-4	5	21
15731	-81	-59	1914	-4	5	21
15736	-77	-66	1913	-4	5	21
15741	-76	-77	1934	-4	5	21
15746	-83	-72	1923	-4	5	21
15751	-81	-75	1939	9	-28	20
15756	-77	-75	1921	9	-28	20
15761	-101	-63	1920	9	-28	20
15766	-85	-59	1934	9	-28	20
15771	-74	-71	1934	9	-28	20
15776	-80	-75	1941	9	-28	20
15781	-80	-73	1926	-60	-18	-97
15786	-84	-64	1924	-60	-18	-97
15791	-83	-62	1910	-60	-18	-97
15796	-76	-78	1924	-60	-18	-97
15801	-75	-61	1907	-60	-18	-97
15806	-74	-75	1917	-60	-18	-97
15811	-78	-69	1911	-60	-18	-97
15816	-79	-70	1915	-21	-12	24
15821	-84	-59	1923	-21	-12	24
15826	-85	-65	1928	-21	-12	24
15831	-80	-67	1920	-21	-12	24
15836	-77	-75	1923	-21	-12	24
15841	-94	-69	1922	-21	-12	24
15846	-78	-67	1925	6	32	-103
15851	-80	-69	1915	6	32	-103
15856	-77	-73	1924	6	32	-103
15861	-79	-82	1920	6	32	-103
15866	-80	-82	1937	6	32	-103
15871	-82	-70	1925	6	32	-103
15876	-83	-68	1921	5	-21	56
15881	-85	-62	1921	5	-21	56
15886	-74	-67	1925	5	-21	56
15891	-86	-84	1925	5	-21	56
15896	-74	-76	1936	5	-21	56
15901	-77	-66	1908	5	-21	56
15906	-78	-61	1918	-11	25	-65
15911	-75	-68	1906	-11	25	-65
15916	-67	-74	1927	-11	25	-65
15921	-76	-64	1920	-11	25	-65
15926	-81	-66	1912	-11	25	-65
15931	-67	-66	1934	-11	25	-65
15936	-75	-57	1918	-62	-8	-5
15941	-79	-71	1909	-62	-8	-5
15946	-75	-66	1912	-62	-8	-5
15951	-81	-75	1922	-62	-8	-5
15956	-81	-68	1920	-62	-8	-5
15961	-79	-68	1931	-62	-8	-5
15966	-79	-68	1936	-62	-8	-5
15971	-73	-69	1930	-23	45	-36
15976	-76	-71	1933	-23	45	-36
15981	-77	-67	1929	-23	45	-36
15986	-82	-71	1920	-23	45	-36
15991	-81	-68	1917	-23	45	-36
15996	-75	-56	1913	-23	45	-36
16001	-78	-65	1926	-41	52	-29
16006	-80	-74	1930	-41	52	-29
16011	-76	-74	1915	-41	52	-29
16016	-69	-68	1931	-41	52	-29
16021	-82	-72	1897	-41	52	-29
16026	-72	-59	1930	-41	52	-29
16031	-76	-64	1920	-15	28	61
16036	-86	-58	1920	-15	28	61
16041	-77	-78	1933	-15	28	61
16046	-77	-64	1921	-15	28	61
16051	-80	-61	1915	-15	28	61
16056	-73	-69	1924	-15	28	61
16061	-73	-72	1916	17	-40	-24
16066	-83	-73	1923	17	-40	-24
16071	-81	-57	1924	17	-40	-24
16076	-58	-77	1897	17	-40	-24
16081	-57	-58	1934	17	-40	-24
16086	-108	-35	1929	17	-40	-24
16091	-54	-62	1941	-26	-85	-42
16096	-97	-51	1935	-26	-85	-42
16101	-46	-67	1915	-26	-85	-42
16106	-74	-50	1933	-26	-85	-42
16111	-73	-36	1947	-26	-85	-42
16116	-72	-46	1920	-26	-85	-42
16121	-78	-53	1928	-26	-85	-42
16126	-79	-38	1925	8	-29	-2
16131	-285	-68	2007	8	-29	-2
16136	-55	-67	1993	8	-29	-2
16141	-78	-48	1924	8	-29	-2
16146	-71	-45	1915	8	-29	-2
16151	-53	-43	1939	8	-29	-2
16156	-78	-45	1916	-53	38	-27
16161	-71	-52	1925	-53	38	-27
16166	-73	-38	1925	-53	38	-27
16171	-84	-54	1937	-53	38	-27
16176	-69	-47	1922	-53	38	-27
16181	-76	-48	1935	-53	38	-27
16186	-67	-61	1910	8	23	2
16191	-70	-54	1922	8	23	2
16196	-71	-62	1938	8	23	2
16201	-72	-46	1919	8	23	2
16206	-71	-47	1914	8	23	2
16211	-68	-54	1926	8	23	2
16216	-80	-44	1920	-62	42	-95
16221	-71	-51	1919	-62	42	-95
16226	-60	-48	1929	-62	42	-95
16231	-84	-39	1919	-62	42	-95
16236	-70	-38	1926	-62	42	-95
16241	-70	-44	1921	-62	42	-95
16246	-80	-36	1926	-19	-9	50
16251	-77	-53	1929	-19	-9	50
16256	-70	-44	1927	-19	-9	50
16261	-66	-45	1921	-19	-9	50
16266	-63	-51	1922	-19	-9	50
16271	-65	-45	1936	-19	-9	50
16276	-63	-49	1925	-19	-9	50
16281	-64	-50	1931	-5	18	-29
16286	-60	-54	1930	-5	18	-29
16291	-60	-44	1933	-5	18	-29
16296	-66	-50	1911	-5	18	-29
16301	-64	-51	1925	-5	18	-29
16306	-70	-46	1925	-5	18	-29
16311	-69	-41	1930	-12	-8	-56
16316	-65	-38	1925	-12	-8	-56
16321	-65	-56	1907	-12	-8	-56
16326	-56	-48	1937	-12	-8	-56
16331	-64	-45	1934	-12	-8	-56
16336	-60	-49	1925	-12	-8	-56
16341	-66	-45	1924	-34	-56	87
16346	-63	-43	1923	-34	-56	87
16351	-66	-36	1932	-34	-56	87
16356	-62	-45	1924	-34	-56	87
16361	-60	-48	1925	-34	-56	87
16366	-58	-46	1925	-34	-56	87
16371	-68	-50	1921	-39	43	-24
16376	-56	-35	1919	-39	43	-24
16381	-58	-51	1933	-39	43	-24
16386	-68	-53	1925	-39	43	-24
16391	-60	-52	1926	-39	43	-24
16396	-62	-51	1935	-39	43	-24
16401	-62	-51	1924	-17	2	71
16406	-64	-40	1938	-17	2	71
16411	-61	-50	1918	-17	2	71
16416	-62	-47	1927	-17	2	71
16421	-67	-43	1931	-17	2	71
16426	-62	-39	1923	-17	2	71
16431	-64	-43	1928	-17	2	71
16436	-63	-42	1912	-33	50	-80
16441	-57	-41	1927	-33	50	-80
16446	-61	-49	1919	-33	50	-80
16451	-64	-42	1930	-33	50	-80
16456	-62	-52	1925	-33	50	-80
16461	-63	-39	1921	-33	50	-80
16466	-66	-44	1916	-27	5	5
16471	-58	-38	1930	-27	5	5
16476	-60	-41	1946	-27	5	5
16481	-58	-46	1946	-27	5	5
16486	-66	-47	1927	-27	5	5
16491	-55	-43	1929	-27	5	5
16496	-62	-41	1941	-25	-32	17
16501	-64	-45	1904	-25	-32	17
16506	-59	-43	1932	-25	-32	17
16511	-61	-46	1923	-25	-32	17
16516	-60	-42	1919	-25	-32	17
16521	-56	-50	1924	-25	-32	17
16526	-63	-46	1928	20	11	-29
16531	-55	-48	1919	20	11	-29
16536	-59	-49	1921	20	11	-29
16541	-70	-43	1922	20	11	-29
16546	-57	-41	1931	20	11	-29
16551	-62	-45	1920	20	11	-29
16556	-64	-52	1932	-31	9	71
16561	-66	-52	1918	-31	9	71
16566	-56	-53	1921	-31	9	71
16571	-55	-44	1922	-31	9	71
16576	-61	-39	1929	-31	9	71
16581	-64	-39	1922	-31	9	71
16586	-59	-43	1913	-31	9	71
16591	-50	-48	1923	-73	21	-52
16596	-57	-47	1942	-73	21	-52
16601	-59	-48	1915	-73	21	-52
16606	-64	-44	1928	-73	21	-52
16611	-61	-39	1916	-73	21	-52
16616	-54	-48	1918	-73	21	-52
16621	-61	-42	1934	-51	65	-39
16626	-55	-45	1927	-51	65	-39
16631	-53	-49	1927	-51	65	-39
16636	-57	-39	1930	-51	65	-39
16641	-57	-50	1927	-51	65	-39
16646	-53	-45	1917	-51	65	-39
16651	-54	-41	1925	8	-41	-33
16656	-60	-43	1931	8	-41	-33
16661	-56	-38	1922	8	-41	-33
16666	-61	-42	1937	8	-41	-33
16671	-62	-46	1921	8	-41	-33
16676	-61	-49	1933	8	-41	-33
16681	-58	-45	1928	-78	-27	33
16686	-54	-44	1939	-78	-27	33
16691	-51	-45	1914	-78	-27	33
16696	-59	-50	1921	-78	-27	33
16701	-49	-47	1926	-78	-27	33
16706	-53	-47	1933	-78	-27	33
16711	-61	-55	1929	-57	22	-29
16716	-55	-52	1937	-57	22	-29
16721	-49	-45	1937	-57	22	-29
16726	-47	-44	1936	-57	22	-29
16731	-54	-47	1928	-57	22	-29
16736	-56	-39	1926	-57	22	-29
16741	-54	-50	1939	-57	22	-29
16746	-62	-46	1935	-44	33	-52
16751	-56	-45	1934	-44	33	-52
16756	-59	-50	1931	-44	33	-52
16761	-50	-42	1928	-44	33	-52
16766	-57	-53	1923	-44	33	-52
16771	-49	-42	1926	-44	33	-52
16776	-59	-42	1925	-21	2	18
16781	-54	-48	1923	-21	2	18
16786	-46	-37	1919	-21	2	18
16791	-60	-51	1926	-21	2	18
16796	-63	-50	1926	-21	2	18
16801	-51	-44	1922	-21	2	18
16806	-53	-41	1923	-42	-20	-77
16811	-51	-45	1931	-42	-20	-77
16816	-52	-48	1922	-42	-20	-77
16821	-57	-48	1915	-42	-20	-77
16826	-60	-54	1931	-42	-20	-77
16831	-61	-43	1927	-42	-20	-77
16836	-51	-47	1927	-81	-11	62
16841	-51	-44	1930	-81	-11	62
16846	-57	-46	1928	-81	-11	62
16851	-53	-53	1944	-81	-11	62
16856	-62	-49	1931	-81	-11	62
16861	-54	-46	1928	-81	-11	62
16866	-60	-41	1938	-56	-2	-49
16871	-52	-49	1926	-56	-2	-49
16876	-58	-46	1924	-56	-2	-49
16881	-44	-50	1922	-56	-2	-49
16886	-57	-47	1919	-56	-2	-49
16891	-54	-41	1934	-56	-2	-49
16896	-61	-48	1932	-56	-2	-49
16901	-52	-47	1921	-24	-24	-14
16906	-60	-46	1917	-24	-24	-14
16911	-56	-50	1933	-24	-24	-14
16916	-58	-46	1924	-24	-24	-14
16921	-50	-45	1919	-24	-24	-14
16926	-56	-43	1930	-24	-24	-14
16931	-48	-46	1921	-77	-11	59
16936	-55	-48	1925	-77	-11	59
16941	-53	-45	1921	-77	-11	59
16946	-55	-40	1926	-77	-11	59
16951	-54	-49	1929	-77	-11	59
16956	-59	-47	1917	-77	-11	59
16961	-53	-46	1926	-98	48	-17
16966	-46	-43	1927	-98	48	-17
16971	-61	-45	1927	-98	48	-17
16976	-53	-44	1939	-98	48	-17
16981	-54	-41	1927	-98	48	-17
16986	-49	-49	1914	-98	48	-17
16991	-46	-43	1911	-33	32	-12
16996	-53	-52	1925	-33	32	-12
17001	-53	-51	1926	-33	32	-12
17006	-45	-45	1916	-33	32	-12
17011	-56	-45	1923	-33	32	-12
17016	-60	-40	1917	-33	32	-12
17021	-52	-53	1931	-21	-12	-7
17026	-56	-44	1943	-21	-12	-7
17031	-50	-51	1926	-21	-12	-7
17036	-48	-48	1925	-21	-12	-7
17041	-49	-49	1940	-21	-12	-7
17046	-49	-51	1928	-21	-12	-7
17051	-53	-45	1929	-21	-12	-7
17056	-62	-44	1927	-44	-1	45
17061	-46	-55	1927	-44	-1	45
17066	-48	-45	1911	-44	-1	45
17071	-41	-42	1938	-44	-1	45
17076	-49	-48	1926	-44	-1	45
17081	-53	-51	1927	-44	-1	45
17086	-58	-43	1935	-76	75	-10
17091	-42	-43	1929	-76	75	-10
17096	-32	-56	1909	-76	75	-10
17101	-60	-32	1929	-76	75	-10
17106	-57	-54	1911	-76	75	-10
17111	-559	717	148	-76	75	-10
16331	-1908	747	157	-76	75	-10
16336	-1895	762	128	-76	75	-10
16341	-1905	760	142	-76	75	-10
16346	-1867	731	158	-76	75	-10
16351	-1865	731	155	-76	75	-10
16356	-1863	727	144	-76	75	-10
16361	-1885	727	142	-76	75	-10
16366	-1905	742	130	-76	75	-10
16371	-1932	741	117	-76	75	-10
16376	-1953	744	99	-76	75	-10
16381	-1959	739	130	-76	75	-10
16386	-1939	733	141	-76	75	-10
16391	-1945	743	148	-76	75	-10
16396	-1909	741	146	-76	75	-10
16401	-1895	728	163	-76	75	-10
16406	-1890	741	142	-76	75	-10
16411	-1897	742	146	-76	75	-10
16416	-1891	736	153	-76	75	-10
16421	-1892	719	173	-76	75	-10
16426	-1880	724	178	-76	75	-10
16431	-1893	724	179	-76	75	-10
16436	-1889	734	185	-76	75	-10
16441	-1894	719	167	-76	75	-10
16446	-1907	741	138	-76	75	-10
16451	-1915	750	125	-76	75	-10
16456	-1922	742	138	-76	75	-10
16461	-1931	741	127	-76	75	-10
16466	-1919	743	139	-76	75	-10
16471	-1921	739	159	-76	75	-10
16476	-1910	732	162	-76	75	-10
16481	-1911	747	145	-76	75	-10
16486	-1923	747	150	-76	75	-10
16491	-1908	742	138	-76	75	-10
16496	-1911	721	133	-76	75	-10
16501	-1916	715	157	-76	75	-10
16506	-1903	709	161	-76	75	-10
16511	-1904	717	151	-76	75	-10
16516	-1913	720	152	-76	75	-10
16521	-1903	737	139	-76	75	-10
16526	-1903	749	144	-76	75	-10
16531	-1895	762	137	-76	75	-10
16536	-1894	762	141	-76	75	-10
16541	-1890	756	146	-76	75	-10
16546	-1890	740	158	-76	75	-10
16551	-1911	743	143	-76	75	-10
16556	-1913	736	115	-76	75	-10
16561	-1926	723	117	-76	75	-10
16566	-1932	728	135	-76	75	-10
16571	-1935	715	169	-76	75	-10
16576	-1950	732	155	-76	75	-10
16581	-1947	728	139	-76	75	-10
16586	-1962	749	133	-76	75	-10
16591	-1961	740	171	-76	75	-10
16596	-1959	752	148	-76	75	-10
16601	-1970	756	158	-76	75	-10
16606	-1954	746	111	-76	75	-10
16611	-1942	777	108	-76	75	-10
16616	-1954	704	148	-76	75	-10
16621	-1907	724	165	-76	75	-10
16626	-1914	759	133	-76	75	-10
16631	-1918	745	194	-76	75	-10
16636	-1883	720	170	-76	75	-10
16641	-1871	687	175	-76	75	-10
16646	-1877	690	149	-76	75	-10
16651	-1885	680	175	-76	75	-10
16656	-1893	676	164	-76	75	-10
16661	-1916	659	174	-76	75	-10
16666	-1895	699	-35	-76	75	-10
16671	-1916	739	135	-76	75	-10
16676	-1798	675	158	-76	75	-10
16681	-1894	650	122	-76	75	-10
16686	-1874	718	232	-76	75	-10
16691	-1904	780	162	-76	75	-10
16696	-1918	747	187	-76	75	-10
16701	-1859	720	228	-76	75	-10
16706	-1912	693	172	-76	75	-10
16711	-1926	721	155	-76	75	-10
16716	-1942	728	138	-76	75	-10
16721	-1954	748	110	-76	75	-10
16726	-1945	743	119	-76	75	-10
16731	-1949	727	134	-76	75	-10
16736	-1934	708	122	-76	75	-10
16741	-1934	719	132	-76	75	-10
16746	-1930	687	131	-76	75	-10
16751	-1921	707	141	-76	75	-10
16756	-1919	702	156	-76	75	-10
16761	-1911	686	158	-76	75	-10
16766	-1907	685	145	-76	75	-10
16771	-1917	676	127	-76	75	-10
16776	-1919	693	130	-76	75	-10
16781	-1921	693	148	-76	75	-10
16786	-1934	703	151	-76	75	-10
16791	-1919	710	157	-76	75	-10
16796	-1917	712	149	-76	75	-10
16801	-1887	680	167	-76	75	-10
16806	-1881	672	191	-76	75	-10
16811	-1866	666	180	-76	75	-10
16816	-1871	661	161	-76	75	-10
16821	-1888	683	185	-76	75	-10
16826	-1903	710	183	-76	75	-10
16831	-1933	719	164	-76	75	-10
16836	-1940	731	149	-76	75	-10
16841	-1938	719	134	-76	75	-10
16846	-1938	684	140	-76	75	-10
16851	-1943	682	180	-76	75	-10
16856	-1935	697	233	-76	75	-10
16861	-1907	676	248	-76	75	-10
16866	-1893	655	236	-76	75	-10
16871	-1838	679	0	-76	75	-10
16876	-1892	555	173	-76	75	-10
16881	-1894	600	314	-76	75	-10
16886	-1888	687	232	-76	75	-10
16891	-1915	691	212	-76	75	-10
16896	-1900	691	211	-76	75	-10
16901	-1908	676	180	-76	75	-10
16906	-1889	654	188	-76	75	-10
16911	-1885	641	215	-76	75	-10
16916	-1899	651	194	-76	75	-10
16921	-1932	692	158	-76	75	-10
16926	-1940	734	144	-76	75	-10
16931	-1952	745	117	-76	75	-10
16936	-1969	753	133	-76	75	-10
16941	-1937	729	133	-76	75	-10
16946	-1956	697	161	-76	75	-10
16951	-1926	688	186	-76	75	-10
16956	-1914	689	219	-76	75	-10
16961	-1918	692	181	-76	75	-10
16966	-1921	722	169	-76	75	-10
16971	-1928	698	193	-76	75	-10
16976	-1914	690	188	-76	75	-10
16981	-1913	707	158	-76	75	-10
16986	-1923	710	167	-76	75	-10
16991	-1937	704	107	-76	75	-10
16996	-1937	678	134	-76	75	-10
17001	-1934	645	158	-76	75	-10
17006	-1922	650	148	-76	75	-10
17011	-1909	649	177	-76	75	-10
17016	-1919	665	202	-76	75	-10
17021	-1886	667	202	-76	75	-10
17026	-1887	671	182	-76	75	-10
17031	-1900	686	172	-76	75	-10
17036	-1907	705	160	-76	75	-10
17041	-1923	702	191	-76	75	-10
17046	-1943	704	197	-76	75	-10
17051	-1940	705	154	-76	75	-10
17056	-1930	719	149	-76	75	-10
17061	-1915	699	156	-76	75	-10
17066	-1899	672	195	-76	75	-10
17071	-1894	652	187	-76	75	-10
17076	-1887	658	184	-76	75	-10
17081	-1905	680	175	-76	75	-10
17086	-1915	702	167	-76	75	-10
17091	-1937	705	189	-76	75	-10
17096	-1932	702	172	-76	75	-10
17101	-1934	695	153	-76	75	-10
17106	-1931	683	182	-76	75	-10
17111	-1933	681	184	-76	75	-10
17116	-1919	681	173	-50	-15	-17
17121	-1906	673	179	-50	-15	-17
17126	-1888	668	174	-50	-15	-17
17131	-1893	678	187	-50	-15	-17
17136	-1898	698	169	-50	-15	-17
17141	-1902	694	184	-50	-15	-17
17146	-1908	697	150	3	72	-30
17151	-1922	691	165	3	72	-30
17156	-1933	698	135	3	72	-30
17161	-1925	687	177	3	72	-30
17166	-1924	679	196	3	72	-30
17171	-1920	680	190	3	72	-30
17176	-1906	682	186	-55	-158	-26
17181	-1891	679	176	-55	-158	-26
17186	-1899	696	191	-55	-158	-26
17191	-1920	723	134	-55	-158	-26
17196	-1930	723	146	-55	-158	-26
17201	-1923	704	185	-55	-158	-26
17206	-1929	694	174	-55	-158	-26
17211	-1930	694	206	-40	-264	-13
17216	-1943	711	155	-40	-264	-13
17221	-1945	713	140	-40	-264	-13
17226	-1932	699	159	-40	-264	-13
17231	-1931	685	209	-40	-264	-13
17236	-1910	687	210	-40	-264	-13
17241	-1903	700	174	-76	-198	-162
17246	-1906	699	215	-76	-198	-162
17251	-1898	679	222	-76	-198	-162
17256	-1897	682	186	-76	-198	-162
17261	-1916	678	233	-76	-198	-162
17266	-1917	678	250	-76	-198	-162
17271	-1925	692	248	-52	-532	3
17276	-1927	657	294	-52	-532	3
17281	-1869	667	338	-52	-532	3
17286	-1906	660	271	-52	-532	3
17291	-1867	659	278	-52	-532	3
17296	-1873	682	270	-52	-532	3
17301	-1885	726	178	-103	-101	81
17306	-1824	737	902	-103	-101	81
17311	-1915	687	225	-103	-101	81
17316	-1894	658	243	-103	-101	81
17321	-1924	697	227	-103	-101	81
17326	-1919	702	279	-103	-101	81
17331	-1902	668	305	-14	-11	-80
17336	-1895	659	319	-14	-11	-80
17341	-1877	662	338	-14	-11	-80
17346	-1873	649	363	-14	-11	-80
17351	-1895	682	308	-14	-11	-80
17356	-1894	675	298	-14	-11	-80
17361	-1895	664	291	-14	-11	-80
17366	-1898	674	288	-95	331	61
17371	-1912	681	261	-95	331	61
17376	-1886	697	342	-95	331	61
17381	-1914	713	386	-95	331	61
17386	-1905	693	185	-95	331	61
17391	-1898	650	188	-95	331	61
17396	-1878	675	326	-51	221	5
17401	-1894	699	297	-51	221	5
17406	-1878	721	253	-51	221	5
17411	-1882	697	289	-51	221	5
17416	-1889	687	288	-51	221	5
17421	-1883	647	323	-51	221	5
17426	-1904	681	230	-35	-121	-42
17431	-1914	710	264	-35	-121	-42
17436	-1938	711	247	-35	-121	-42
17441	-1939	755	235	-35	-121	-42
17446	-1927	741	256	-35	-121	-42
17451	-1932	716	250	-35	-121	-42
17456	-1922	716	211	-64	-259	-41
17461	-1906	711	269	-64	-259	-41
17466	-1900	692	227	-64	-259	-41
17471	-1890	697	218	-64	-259	-41
17476	-1861	665	316	-64	-259	-41
17481	-1859	646	303	-64	-259	-41
17486	-1854	644	318	-27	39	19
17491	-1859	681	318	-27	39	19
17496	-1885	711	314	-27	39	19
17501	-1902	725	260	-27	39	19
17506	-1941	723	297	-27	39	19
17511	-1931	687	306	-27	39	19
17516	-1920	701	292	-27	39	19
17521	-1923	693	294	-18	99	-131
17526	-1909	674	297	-18	99	-131
17531	-1912	708	299	-18	99	-131
17536	-1887	695	316	-18	99	-131
17541	-1871	676	297	-18	99	-131
17546	-1866	677	311	-18	99	-131
17551	-1862	691	298	-66	3	91
17556	-1862	704	297	-66	3	91
17561	-1865	701	313	-66	3	91
17566	-1872	724	286	-66	3	91
17571	-1890	694	287	-66	3	91
17576	-1880	709	279	-66	3	91
17581	-1894	722	285	-20	-17	-29
17586	-1900	731	286	-20	-17	-29
17591	-1903	727	297	-20	-17	-29
17596	-1905	701	262	-20	-17	-29
17601	-1885	703	342	-20	-17	-29
17606	-1942	674	292	-20	-17	-29
17611	-1912	711	268	-59	-27	28
17616	-1915	684	262	-59	-27	28
17621	-1924	691	340	-59	-27	28
17626	-1877	682	288	-59	-27	28
17631	-1887	706	297	-59	-27	28
17636	-1879	712	268	-59	-27	28
17641	-1902	720	251	-60	22	104
17646	-1892	724	255	-60	22	104
17651	-1908	704	244	-60	22	104
17656	-1899	709	247	-60	22	104
17661	-1918	674	296	-60	22	104
17666	-1896	697	283	-60	22	104
17671	-1934	723	168	-60	22	104
17676	-1875	700	269	-57	-131	-39
17681	-1881	660	264	-57	-131	-39
17686	-1853	673	267	-57	-131	-39
17691	-1849	691	326	-57	-131	-39
17696	-1861	714	327	-57	-131	-39
17701	-1894	715	345	-57	-131	-39
17706	-1906	718	356	-113	68	36
17711	-1901	682	344	-113	68	36
17716	-1891	674	331	-113	68	36
17721	-1872	691	319	-113	68	36
17726	-1885	704	341	-113	68	36
17731	-1850	725	333	-113	68	36
17736	-1857	744	298	-92	159	-85
17741	-1868	735	284	-92	159	-85
17746	-1901	739	303	-92	159	-85
17751	-1913	728	263	-92	159	-85
17756	-1940	752	246	-92	159	-85
17761	-1942	737	221	-92	159	-85
17766	-1938	724	264	-28	-5	49
17771	-1887	681	301	-28	-5	49
17776	-1817	657	271	-28	-5	49
17781	-1868	658	274	-28	-5	49
17786	-1819	705	305	-28	-5	49
17791	-1870	716	325	-28	-5	49
17796	-1915	705	338	-62	200	-10
17801	-1927	747	292	-62	200	-10
17806	-1936	761	287	-62	200	-10
17811	-1929	698	257	-62	200	-10
17816	-1859	665	294	-62	200	-10
17821	-1885	667	321	-62	200	-10
17826	-1854	688	339	-62	200	-10
17831	-1851	697	310	-52	-35	6
17836	-1886	703	324	-52	-35	6
17841	-1910	720	285	-52	-35	6
17846	-1920	766	261	-52	-35	6
17851	-1960	804	186	-52	-35	6
17856	-1969	806	148	-52	-35	6
17861	-1949	768	161	-95	122	-102
17866	-1957	732	232	-95	122	-102
17871	-1904	690	249	-95	122	-102
17876	-1897	672	270	-95	122	-102
17881	-1872	648	324	-95	122	-102
17886	-1850	639	342	-95	122	-102
17891	-1864	656	318	-34	-34	77
17896	-1887	689	285	-34	-34	77
17901	-1869	691	246	-34	-34	77
17906	-1897	731	233	-34	-34	77
17911	-1919	730	211	-34	-34	77
17916	-1916	728	199	-34	-34	77
17921	-1922	710	227	-52	-40	-5
17926	-1906	711	242	-52	-40	-5
17931	-1916	702	267	-52	-40	-5
17936	-1898	695	293	-52	-40	-5
17941	-1857	711	269	-52	-40	-5
17946	-1889	710	243	-52	-40	-5
17951	-1907	700	251	-101	-51	-17
17956	-1896	712	239	-101	-51	-17
17961	-1926	714	248	-101	-51	-17
17966	-1927	728	270	-101	-51	-17
17971	-1922	698	255	-101	-51	-17
17976	-1896	694	271	-101	-51	-17
17981	-1892	676	292	-101	-51	-17
17986	-1854	694	303	-140	4	-68
17991	-1877	710	289	-140	4	-68
17996	-1881	720	295	-140	4	-68
18001	-1918	703	293	-140	4	-68
18006	-1914	702	248	-140	4	-68
18011	-1890	713	257	-140	4	-68
18016	-1878	701	265	-17	-21	-102
18021	-1903	710	276	-17	-21	-102
18026	-1900	700	273	-17	-21	-102
18031	-1880	718	256	-17	-21	-102
18036	-1900	692	284	-17	-21	-102
18041	-1929	688	281	-17	-21	-102
18046	-1925	678	258	-190	89	53
18051	-1934	720	244	-190	89	53
18056	-1968	712	212	-190	89	53
18061	-2004	682	270	-190	89	53
18066	-1902	680	240	-190	89	53
18071	-1868	666	316	-190	89	53
18076	-1840	655	327	-95	-64	-74
18081	-1784	730	311	-95	-64	-74
18086	-1896	689	282	-95	-64	-74
18091	-1851	740	254	-95	-64	-74
18096	-1931	725	245	-95	-64	-74
18101	-1938	727	176	-95	-64	-74
18106	-1982	725	228	-27	92	18
18111	-1943	694	262	-27	92	18
18116	-1868	701	261	-27	92	18
18121	-1886	615	344	-27	92	18
18126	-1838	620	355	-27	92	18
18131	-1879	649	346	-27	92	18
18136	-1868	637	322	-27	92	18
18141	-1883	667	333	-32	0	5
18146	-1912	708	246	-32	0	5
18151	-1928	763	268	-32	0	5
18156	-1955	761	269	-32	0	5
18161	-1964	791	238	-32	0	5
18166	-1993	799	225	-32	0	5
18171	-1979	681	269	-66	147	-41
18176	-1909	697	338	-66	147	-41
18181	-1877	678	318	-66	147	-41
18186	-1807	659	317	-66	147	-41
18191	-1788	687	306	-66	147	-41
18196	-1796	712	266	-66	147	-41
18201	-1828	712	248	-63	-5	82
18206	-1849	767	247	-63	-5	82
18211	-1958	749	214	-63	-5	82
18216	-1983	762	201	-63	-5	82
18221	-2036	772	170	-63	-5	82
18226	-1991	776	172	-63	-5	82
18231	-1980	725	192	-56	0	58
18236	-1927	685	213	-56	0	58
18241	-1774	656	240	-56	0	58
18246	-1749	654	292	-56	0	58
18251	-1753	664	348	-56	0	58
18256	-1781	685	296	-56	0	58
18261	-1861	705	271	-32	-42	59
18266	-1908	753	220	-32	-42	59
18271	-1979	792	195	-32	-42	59
18276	-2001	777	216	-32	-42	59
18281	-1982	780	247	-32	-42	59
18286	-1957	733	246	-32	-42	59
18291	-1925	695	269	-32	-42	59
18296	-1853	678	301	-73	18	-27
18301	-1835	674	311	-73	18	-27
18306	-1818	680	350	-73	18	-27
18311	-1827	691	323	-73	18	-27
18316	-1907	732	266	-73	18	-27
18321	-1926	776	248	-73	18	-27
18326	-1965	779	239	-50	48	-83
18331	-1976	778	262	-50	48	-83
18336	-1960	762	275	-50	48	-83
18341	-1923	728	275	-50	48	-83
18346	-1887	720	282	-50	48	-83
18351	-1843	699	291	-50	48	-83
18356	-1825	689	285	-56	43	-65
18361	-1839	711	298	-56	43	-65
18366	-1861	722	282	-56	43	-65
18371	-1894	733	267	-56	43	-65
18376	-1897	729	260	-56	43	-65
18381	-1912	709	265	-56	43	-65
18386	-1904	692	259	-40	70	112
18391	-1888	684	254	-40	70	112
18396	-1880	680	288	-40	70	112
18401	-1881	668	290	-40	70	112
18406	-1901	695	267	-40	70	112
18411	-1906	707	251	-40	70	112
18416	-1926	709	247	-70	-10	-71
18421	-1926	725	217	-70	-10	-71
18426	-1931	732	231	-70	-10	-71
18431	-1917	736	219	-70	-10	-71
18436	-1931	734	238	-70	-10	-71
18441	-1934	749	216	-70	-10	-71
18446	-1966	751	214	-70	-10	-71
18451	-1943	739	250	-35	-31	33
18456	-1928	720	264	-35	-31	33
18461	-1918	714	264	-35	-31	33
18466	-1890	697	284	-35	-31	33
18471	-1858	703	284	-35	-31	33
18476	-1849	709	267	-35	-31	33
18481	-1858	705	282	-65	94	50
18486	-1872	716	258	-65	94	50
18491	-1866	708	274	-65	94	50
18496	-1888	716	249	-65	94	50
18501	-1886	720	240	-65	94	50
18506	-1876	706	267	-65	94	50
18511	-1851	695	271	-33	-18	-35
18516	-1845	711	277	-33	-18	-35
18521	-1857	726	237	-33	-18	-35
18526	-1900	746	229	-33	-18	-35
18531	-1910	733	209	-33	-18	-35
18536	-1941	745	189	-33	-18	-35
18541	-1952	741	196	-40	-93	19
18546	-1941	736	214	-40	-93	19
18551	-1926	714	254	-40	-93	19
18556	-1911	689	264	-40	-93	19
18561	-1879	663	287	-40	-93	19
18566	-1873	673	281	-40	-93	19
18571	-1865	661	293	-36	13	-74
18576	-1879	681	267	-36	13	-74
18581	-1893	699	263	-36	13	-74
18586	-1898	719	238	-36	13	-74
18591	-1938	742	206	-36	13	-74
18596	-1943	741	217	-36	13	-74
18601	-1925	726	234	-36	13	-74
18606	-1912	711	257	-29	36	-14
18611	-1895	679	284	-29	36	-14
18616	-1909	677	251	-29	36	-14
18621	-1904	694	259	-29	36	-14
18626	-1893	685	258	-29	36	-14
18631	-1893	700	266	-29	36	-14
18636	-1912	717	241	-21	13	-90
18641	-1916	722	250	-21	13	-90
18646	-1915	718	266	-21	13	-90
18651	-1900	714	279	-21	13	-90
18656	-1877	693	264	-21	13	-90
18661	-1855	690	280	-21	13	-90
18666	-1849	696	265	-17	43	131
18671	-1866	694	249	-17	43	131
18676	-1867	693	241	-17	43	131
18681	-1876	710	220	-17	43	131
18686	-1914	710	230	-17	43	131
18691	-1933	717	236	-17	43	131
18696	-1930	711	257	61	-25	-106
18701	-1920	709	254	61	-25	-106
18706	-1918	708	252	61	-25	-106
18711	-1919	728	223	61	-25	-106
18716	-1912	726	255	61	-25	-106
18721	-1914	695	268	61	-25	-106
18726	-1924	704	261	66	-31	-120
18731	-1935	743	238	66	-31	-120
18736	-1968	742	233	66	-31	-120
18741	-1983	738	230	66	-31	-120
18746	-1991	742	234	66	-31	-120
18751	-2001	724	263	66	-31	-120
18756	-1993	718	267	66	-31	-120
18761	-1994	704	263	116	63	-82
18766	-1951	683	283	116	63	-82
18771	-1922	643	303	116	63	-82
18776	-1895	611	310	116	63	-82
18781	-1837	642	301	116	63	-82
18786	-1843	614	270	116	63	-82
18791	-1803	627	319	68	134	77
18796	-1747	629	327	68	134	77
18801	-1782	653	270	68	134	77
18806	-1916	589	306	68	134	77
18811	-1837	671	275	68	134	77
18816	-1857	688	250	68	134	77
18821	-1915	699	214	-100	353	147
18826	-1971	687	200	-100	353	147
18831	-1944	674	190	-100	353	147
18836	-1925	699	95	-100	353	147
18841	-1968	652	96	-100	353	147
18846	-1898	597	20	-100	353	147
18851	-1927	706	82	-2	-49	-167
18856	-1943	807	98	-2	-49	-167
18861	-1971	820	20	-2	-49	-167
18866	-1984	808	149	-2	-49	-167
18871	-1961	869	215	-2	-49	-167
18876	-2007	811	186	-2	-49	-167
18881	-1967	766	221	-143	-48	6
18886	-1931	738	185	-143	-48	6
18891	-1915	676	218	-143	-48	6
18896	-1877	622	194	-143	-48	6
18901	-1857	608	157	-143	-48	6
18906	-1896	677	142	-143	-48	6
18911	-1856	711	127	-143	-48	6
18916	-1918	737	108	-30	-673	-240
18921	-1921	789	138	-30	-673	-240
18926	-1952	753	189	-30	-673	-240
18931	-1928	739	218	-30	-673	-240
18936	-1921	727	208	-30	-673	-240
18941	-1895	686	223	-30	-673	-240
18946	-1884	648	241	-111	-101	84
18951	-1874	632	229	-111	-101	84
18956	-1895	656	229	-111	-101	84
18961	-1893	674	232	-111	-101	84
18966	-1907	678	200	-111	-101	84
18971	-1917	551	133	-111	-101	84
18976	-1892	621	217	-65	7	-112
18981	-1919	684	259	-65	7	-112
18986	-1932	707	310	-65	7	-112
18991	-1932	726	329	-65	7	-112
18996	-1914	697	331	-65	7	-112
19001	-1920	723	276	-65	7	-112
19006	-1901	655	259	-40	-67	21
19011	-1914	646	232	-40	-67	21
19016	-1905	664	221	-40	-67	21
19021	-1905	700	268	-40	-67	21
19026	-1922	720	259	-40	-67	21
19031	-1916	753	273	-40	-67	21
19036	-1920	735	277	-57	2028	33
19041	-1911	722	284	-57	2028	33
19046	-1887	687	309	-57	2028	33
19051	-1874	680	357	-57	2028	33
19056	-1786	289	1058	-57	2028	33
19061	-1800	634	494	-57	2028	33
19066	-1831	655	207	-57	2028	33
19071	-1860	672	52	-66	56	-112
19076	-1900	684	-121	-66	56	-112
19081	-1930	738	-53	-66	56	-112
19086	-1926	766	249	-66	56	-112
19091	-1952	779	275	-66	56	-112
19096	-1971	754	132	-66	56	-112
19101	-1966	729	91	-62	-11	27
19106	-1956	685	196	-62	-11	27
19111	-1923	663	158	-62	-11	27
19116	-1915	642	170	-62	-11	27
19121	-1888	643	215	-62	-11	27
19126	-1890	645	190	-62	-11	27
19131	-1894	662	207	-124	34	2
19136	-1885	687	215	-124	34	2
19141	-1888	700	177	-124	34	2
19146	-1891	714	186	-124	34	2
19151	-1904	713	164	-124	34	2
19156	-1910	705	140	-124	34	2
19161	-1903	696	173	-2	106	-104
19166	-1916	707	188	-2	106	-104
19171	-1906	717	205	-2	106	-104
19176	-1906	712	220	-2	106	-104
19181	-1907	707	213	-2	106	-104
19186	-1900	691	205	-2	106	-104
19191	-1900	705	235	-38	136	-114
19196	-1904	726	254	-38	136	-114
19201	-1936	753	168	-38	136	-114
19206	-1947	767	139	-38	136	-114
19211	-1950	730	167	-38	136	-114
19216	-1938	682	154	-38	136	-114
19221	-1942	650	174	-38	136	-114
19226	-1934	647	170	-215	-48	-11
19231	-1916	629	138	-215	-48	-11
19236	-1900	612	158	-215	-48	-11
19241	-1895	600	180	-215	-48	-11
19246	-1925	599	120	-215	-48	-11
19251	-1868	641	108	-215	-48	-11
19256	-1919	621	163	-27	63	-189
19261	-1946	697	119	-27	63	-189
19266	-1978	746	111	-27	63	-189
19271	-1987	750	164	-27	63	-189
19276	-1988	738	143	-27	63	-189
19281	-1975	732	141	-27	63	-189
19286	-1953	700	160	-4	220	-20
19291	-1923	672	181	-4	220	-20
19296	-1891	638	170	-4	220	-20
19301	-1872	628	159	-4	220	-20
19306	-1843	618	172	-4	220	-20
19311	-1849	623	160	-4	220	-20
19316	-1865	639	123	-31	18	-41
19321	-1887	630	76	-31	18	-41
19326	-1906	629	66	-31	18	-41
19331	-1921	629	75	-31	18	-41
19336	-1931	680	49	-31	18	-41
19341	-1958	693	73	-31	18	-41
19346	-1964	709	131	-14	127	-149
19351	-1955	700	152	-14	127	-149
19356	-1970	716	114	-14	127	-149
19361	-1976	709	118	-14	127	-149
19366	-1976	711	88	-14	127	-149
19371	-1975	690	81	-14	127	-149
19376	-1977	678	116	-14	127	-149
