time	accelerometer_x	accelerometer_y	accelerometer_z	gyroscope_x	gyroscope_y	gyroscope_z	
1	-27	72	1935	28	26	-65
6	-23	54	1944	45	15	-54
11	-16	69	1907	45	15	-54
16	-22	60	1990	45	15	-54
21	-25	62	1950	45	15	-54
26	-13	68	1897	45	15	-54
31	-30	65	1967	45	15	-54
36	-32	72	1918	111	-30	80
41	-22	78	1946	111	-30	80
46	-28	77	1965	111	-30	80
51	-17	66	1925	111	-30	80
56	-27	93	1933	111	-30	80
61	-21	88	1911	111	-30	80
66	-23	85	1926	-52	-37	24
71	-18	100	1930	-52	-37	24
76	-25	108	1917	-52	-37	24
81	-17	106	1945	-52	-37	24
86	-18	108	1924	-52	-37	24
91	-17	111	1924	-52	-37	24
112	-23	84	1939	-91	16	-15
116	-20	91	1926	-91	16	-15
121	-18	77	1918	-91	16	-15
126	-22	85	1926	12	12	-51
131	-21	79	1922	12	12	-51
136	-30	79	1918	12	12	-51
141	-20	84	1922	12	12	-51
146	-20	75	1933	12	12	-51
151	-20	84	1926	12	12	-51
156	-20	85	1939	12	12	-51
161	-22	87	1917	-72	20	-96
166	-17	100	1919	-72	20	-96
171	-23	92	1917	-72	20	-96
176	-19	95	1924	-72	20	-96
181	-23	98	1924	-72	20	-96
186	-25	98	1923	-72	20	-96
191	-31	98	1914	-68	49	18
196	-18	94	1924	-68	49	18
201	-20	95	1915	-68	49	18
206	-15	89	1928	-68	49	18
211	-20	89	1923	-68	49	18
216	-22	93	1922	-68	49	18
221	-25	85	1916	2	-12	-5
226	-21	83	1909	2	-12	-5
231	-16	76	1926	2	-12	-5
236	-18	90	1931	2	-12	-5
241	-21	89	1923	2	-12	-5
246	-24	93	1918	2	-12	-5
251	-25	89	1929	-41	-40	-18
256	-23	87	1926	-41	-40	-18
261	-16	100	1921	-41	-40	-18
266	-21	86	1920	-41	-40	-18
271	-17	100	1910	-41	-40	-18
276	-23	88	1925	-41	-40	-18
281	-28	99	1923	-24	10	-119
286	-27	93	1927	-24	10	-119
291	-20	90	1912	-24	10	-119
296	-28	96	1931	-24	10	-119
301	-13	82	1909	-24	10	-119
306	-14	83	1922	-24	10	-119
311	-28	86	1929	-24	10	-119
316	-22	86	1929	-13	80	2
321	-18	85	1902	-13	80	2
326	-21	90	1924	-13	80	2
331	-23	88	1932	-13	80	2
336	-24	96	1917	-13	80	2
341	-34	98	1920	-13	80	2
346	-20	89	1931	-84	57	-7
351	-16	93	1924	-84	57	-7
356	-22	87	1929	-84	57	-7
361	-21	91	1922	-84	57	-7
366	-24	99	1930	-84	57	-7
371	-24	96	1921	-84	57	-7
376	-24	97	1924	-36	20	-65
381	-24	90	1913	-36	20	-65
386	-22	94	1930	-36	20	-65
391	-33	93	1929	-36	20	-65
396	-23	93	1942	-36	20	-65
401	-20	90	1922	-36	20	-65
406	-23	93	1928	-5	-38	39
411	-32	89	1936	-5	-38	39
416	-28	95	1917	-5	-38	39
421	-24	85	1924	-5	-38	39
426	-21	87	1938	-5	-38	39
431	-17	92	1924	-5	-38	39
436	-22	84	1927	-93	45	15
441	-17	87	1925	-93	45	15
446	-23	89	1917	-93	45	15
451	-30	90	1932	-93	45	15
456	-25	93	1949	-93	45	15
461	-15	94	1929	-93	45	15
466	-18	84	1929	-93	45	15
471	-28	87	1918	-36	47	-24
476	-22	90	1920	-36	47	-24
481	-23	87	1939	-36	47	-24
486	-13	95	1934	-36	47	-24
491	-22	85	1919	-36	47	-24
496	-26	94	1926	-36	47	-24
501	-15	93	1917	-42	47	-34
506	-18	92	1921	-42	47	-34
511	-23	92	1928	-42	47	-34
516	-27	81	1935	-42	47	-34
521	-17	86	1923	-42	47	-34
526	-21	86	1925	-42	47	-34
531	-22	95	1932	-29	29	-32
536	-18	89	1935	-29	29	-32
541	-22	101	1922	-29	29	-32
546	-27	95	1926	-29	29	-32
551	-18	83	1929	-29	29	-32
556	-18	94	1933	-29	29	-32
561	-20	91	1929	-40	13	64
566	-19	91	1924	-40	13	64
571	-20	94	1926	-40	13	64
576	-21	89	1931	-40	13	64
581	-21	93	1930	-40	13	64
586	-20	88	1903	-40	13	64
591	-18	92	1921	-83	10	53
596	-24	90	1923	-83	10	53
601	-20	93	1920	-83	10	53
606	-25	94	1928	-83	10	53
611	-21	87	1937	-83	10	53
616	-21	88	1926	-83	10	53
621	-26	93	1922	-83	10	53
626	-24	96	1925	-13	-28	59
631	-24	90	1930	-13	-28	59
636	-20	94	1915	-13	-28	59
641	-21	93	1923	-13	-28	59
646	-22	90	1910	-13	-28	59
651	-15	93	1921	-13	-28	59
656	-24	86	1914	-85	29	17
661	-16	94	1922	-85	29	17
666	-15	86	1933	-85	29	17
671	-24	90	1924	-85	29	17
676	-25	100	1925	-85	29	17
681	-32	94	1923	-85	29	17
686	-28	96	1933	-55	20	-36
691	-28	98	1923	-55	20	-36
696	-14	86	1927	-55	20	-36
701	-20	89	1903	-55	20	-36
706	-23	90	1926	-55	20	-36
711	-18	95	1916	-55	20	-36
716	-20	94	1928	-55	22	-61
721	-27	88	1922	-55	22	-61
726	-31	95	1923	-55	22	-61
731	-19	93	1932	-55	22	-61
736	-21	88	1918	-55	22	-61
741	-20	94	1932	-55	22	-61
746	-24	87	1931	-64	-15	-17
751	-14	90	1934	-64	-15	-17
756	-17	92	1924	-64	-15	-17
761	-24	80	1921	-64	-15	-17
766	-20	96	1924	-64	-15	-17
771	-14	97	1926	-64	-15	-17
776	-20	89	1932	-64	-15	-17
781	-20	85	1910	11	43	121
786	-23	87	1927	11	43	121
791	-24	97	1925	11	43	121
796	-18	94	1930	11	43	121
801	-20	93	1934	11	43	121
806	-22	93	1927	11	43	121
811	-26	90	1913	-32	0	27
816	-23	92	1915	-32	0	27
821	-17	85	1917	-32	0	27
826	-24	90	1929	-32	0	27
831	-25	93	1918	-32	0	27
836	-20	90	1921	-32	0	27
841	-18	88	1918	-42	27	-14
846	-28	88	1932	-42	27	-14
851	-13	91	1935	-42	27	-14
856	-20	90	1919	-42	27	-14
861	-21	91	1919	-42	27	-14
866	-14	86	1938	-42	27	-14
871	-21	87	1931	-51	-10	11
876	-20	96	1914	-51	-10	11
881	-14	94	1920	-51	-10	11
886	-17	100	1934	-51	-10	11
891	-22	90	1935	-51	-10	11
896	-17	91	1927	-51	-10	11
901	-16	95	1921	-55	-12	-65
906	-18	93	1934	-55	-12	-65
911	-20	91	1926	-55	-12	-65
916	-21	98	1928	-55	-12	-65
921	-19	88	1914	-55	-12	-65
926	-16	98	1931	-55	-12	-65
931	-22	96	1913	-55	-12	-65
936	-19	90	1917	-9	2	121
941	-21	96	1934	-9	2	121
946	-17	97	1909	-9	2	121
951	-22	91	1928	-9	2	121
956	-22	89	1923	-9	2	121
961	-17	89	1922	-9	2	121
966	-27	87	1932	-24	8	-21
971	-26	93	1934	-24	8	-21
976	-21	89	1923	-24	8	-21
981	-25	87	1928	-24	8	-21
986	-18	88	1925	-24	8	-21
991	-15	84	1928	-24	8	-21
996	-14	96	1927	-33	25	48
1001	-22	100	1932	-33	25	48
1006	-19	99	1929	-33	25	48
1011	-18	89	1911	-33	25	48
1016	-27	89	1919	-33	25	48
1021	-22	95	1936	-33	25	48
1026	-21	86	1936	-35	42	-17
1031	-16	90	1932	-35	42	-17
1036	-28	101	1908	-35	42	-17
1041	-15	90	1934	-35	42	-17
1046	-21	83	1931	-35	42	-17
1051	-29	86	1922	-35	42	-17
1056	-13	95	1925	4	23	-14
1061	-27	92	1925	4	23	-14
1066	-19	88	1927	4	23	-14
1071	-27	90	1920	4	23	-14
1076	-20	91	1915	4	23	-14
1081	-19	82	1925	4	23	-14
1086	-28	93	1927	4	23	-14
1091	-15	99	1914	-101	79	-21
1096	-33	90	1930	-101	79	-21
1101	-21	93	1915	-101	79	-21
1106	-20	92	1918	-101	79	-21
1111	-19	89	1926	-101	79	-21
1116	-24	87	1938	-101	79	-21
1121	-21	90	1913	3	18	-12
1126	-22	93	1920	3	18	-12
1131	-23	88	1930	3	18	-12
1136	-19	95	1931	3	18	-12
1141	-19	90	1924	3	18	-12
1146	-19	85	1935	3	18	-12
1151	-27	92	1931	-9	9	97
1156	-21	94	1919	-9	9	97
1161	-19	89	1931	-9	9	97
1166	-24	91	1927	-9	9	97
1171	-18	93	1929	-9	9	97
1176	-27	90	1921	-9	9	97
1181	-29	89	1924	-62	-24	31
1186	-22	83	1928	-62	-24	31
1191	-21	89	1932	-62	-24	31
1196	-20	89	1944	-62	-24	31
1201	-22	93	1911	-62	-24	31
1206	-20	100	1928	-62	-24	31
1211	-24	84	1928	-50	-40	-4
1216	-18	89	1915	-50	-40	-4
1221	-30	83	1921	-50	-40	-4
1226	-20	98	1934	-50	-40	-4
1231	-21	85	1925	-50	-40	-4
1236	-23	92	1931	-50	-40	-4
1241	-18	94	1924	-50	-40	-4
1246	-25	91	1910	-81	-2	-34
1251	-19	96	1928	-81	-2	-34
1256	-22	94	1917	-81	-2	-34
1261	-24	93	1931	-81	-2	-34
1266	-20	91	1930	-81	-2	-34
1271	-21	89	1930	-81	-2	-34
1276	-21	95	1915	-33	26	-15
1281	-22	92	1925	-33	26	-15
1286	-20	88	1924	-33	26	-15
1291	-15	90	1913	-33	26	-15
1296	-19	90	1927	-33	26	-15
1301	-26	89	1928	-33	26	-15
1306	-14	86	1936	-62	47	48
1311	-24	90	1925	-62	47	48
1316	-20	92	1932	-62	47	48
1321	-19	93	1937	-62	47	48
1326	-26	99	1912	-62	47	48
1331	-17	89	1914	-62	47	48
1336	-18	91	1925	-33	23	-95
1341	-17	89	1920	-33	23	-95
1346	-26	98	1942	-33	23	-95
1351	-22	96	1937	-33	23	-95
1356	-17	96	1926	-33	23	-95
1361	-22	90	1933	-33	23	-95
1366	-16	93	1917	-16	-4	68
1371	-17	88	1932	-16	-4	68
1376	-18	92	1918	-16	-4	68
1381	-26	82	1929	-16	-4	68
1386	-24	92	1923	-16	-4	68
1391	-19	90	1921	-16	-4	68
1396	-38	89	1925	-16	-4	68
1401	-17	87	1917	-81	89	-21
1406	-20	85	1932	-81	89	-21
1411	-23	92	1930	-81	89	-21
1416	-18	89	1918	-81	89	-21
1421	-17	93	1939	-81	89	-21
1426	-22	92	1932	-81	89	-21
1431	-26	101	1924	-80	45	-21
1436	-23	94	1937	-80	45	-21
1441	-24	86	1909	-80	45	-21
1446	-23	89	1922	-80	45	-21
1451	-17	88	1916	-80	45	-21
1456	-19	91	1922	-80	45	-21
1461	-22	90	1919	-21	-18	77
1466	-17	91	1900	-21	-18	77
1471	-23	92	1917	-21	-18	77
1476	-24	92	1926	-21	-18	77
1481	-23	94	1924	-21	-18	77
1486	-28	94	1918	-21	-18	77
1491	-14	94	1919	-55	-22	-67
1496	-28	89	1924	-55	-22	-67
1501	-28	91	1935	-55	-22	-67
1506	-17	98	1930	-55	-22	-67
1511	-16	93	1919	-55	-22	-67
1516	-22	87	1929	-55	-22	-67
1521	-27	92	1923	-71	65	12
1526	-18	95	1916	-71	65	12
1531	-22	91	1928	-71	65	12
1536	-26	96	1924	-71	65	12
1541	-15	95	1929	-71	65	12
1546	-21	85	1925	-71	65	12
1551	-28	95	1913	-71	65	12
1556	-23	84	1924	-37	29	-17
1561	-25	94	1921	-37	29	-17
1566	-23	90	1932	-37	29	-17
1571	-28	90	1929	-37	29	-17
1576	-21	79	1923	-37	29	-17
1581	-25	99	1927	-37	29	-17
1586	-28	84	1926	-28	13	-1
1591	-20	95	1924	-28	13	-1
1596	-70	116	2310	-28	13	-1
1601	-15	97	1894	-28	13	-1
1606	-14	92	2088	-28	13	-1
1611	-43	102	2061	-28	13	-1
1616	-20	95	1969	1	23	-37
1621	-26	87	1986	1	23	-37
1626	-19	95	1923	1	23	-37
1631	-22	90	2010	1	23	-37
1636	-23	85	1883	1	23	-37
1641	-20	101	1955	1	23	-37
1646	-21	85	1942	-31	50	-118
1651	-25	82	1842	-31	50	-118
1656	-26	91	1944	-31	50	-118
1661	-19	85	1889	-31	50	-118
1666	-13	92	1900	-31	50	-118
1671	-15	93	1919	-31	50	-118
1676	-23	88	1930	-41	47	33
1681	7	65	1570	-41	47	33
1686	52	76	1802	-41	47	33
1691	-3	65	1613	-41	47	33
1696	-7	82	1680	-41	47	33
1701	-20	96	2002	-41	47	33
1706	-21	101	2038	-41	47	33
1711	-15	88	1872	-46	30	-65
1716	-35	78	1963	-46	30	-65
1721	0	91	1870	-46	30	-65
1726	-25	102	1997	-46	30	-65
1731	-13	86	1896	-46	30	-65
1736	-26	88	1947	-46	30	-65
1741	-16	83	1919	7	-18	-23
1746	-20	86	1949	7	-18	-23
1751	-22	101	1977	7	-18	-23
1756	-15	93	1885	7	-18	-23
1761	-28	101	1973	7	-18	-23
1766	-15	83	1888	7	-18	-23
1771	-21	89	1944	-61	-2	-1
1776	-27	88	1908	-61	-2	-1
1781	-18	94	1896	-61	-2	-1
1786	-17	93	1967	-61	-2	-1
1791	-13	88	1898	-61	-2	-1
1796	-22	92	1947	-61	-2	-1
1801	-26	100	1929	-65	30	-2
1806	-15	88	1928	-65	30	-2
1811	-28	101	1930	-65	30	-2
1816	-17	91	1926	-65	30	-2
1821	-20	93	1925	-65	30	-2
1826	-19	95	1907	-65	30	-2
1831	-27	90	1937	-72	53	-30
1836	-18	90	1912	-72	53	-30
1841	-17	90	1921	-72	53	-30
1846	-20	97	1920	-72	53	-30
1851	-23	87	1923	-72	53	-30
1856	-27	86	1919	-72	53	-30
1861	-25	96	1919	-72	53	-30
1866	-19	89	1940	1	-2	-59
1871	-25	91	1922	1	-2	-59
1876	-16	88	1930	1	-2	-59
1881	-26	95	1926	1	-2	-59
1886	-17	91	1925	1	-2	-59
1891	-22	83	1933	1	-2	-59
1896	-23	90	1927	-19	-8	84
1901	-24	97	1924	-19	-8	84
1906	-22	94	1911	-19	-8	84
1911	-20	90	1918	-19	-8	84
1916	-23	82	1927	-19	-8	84
1921	-20	94	1907	-19	-8	84
1926	-17	83	1913	-74	-20	29
1931	-23	92	1931	-74	-20	29
1936	-21	92	1920	-74	-20	29
1941	-23	84	1918	-74	-20	29
1946	-20	89	1927	-74	-20	29
1951	-21	93	1920	-74	-20	29
1956	-23	87	1925	-69	40	-2
1961	-26	85	1919	-69	40	-2
1966	-26	91	1920	-69	40	-2
1971	-26	88	1926	-69	40	-2
1976	-24	94	1927	-69	40	-2
1981	-17	90	1929	-69	40	-2
1986	-21	94	1939	-54	6	58
1991	-18	94	1916	-54	6	58
1996	-19	91	1930	-54	6	58
2001	-21	100	1928	-54	6	58
2006	-16	92	1920	-54	6	58
2011	-24	99	1926	-54	6	58
2016	-18	88	1921	-54	6	58
2021	-11	91	1928	-89	20	-87
2026	-17	82	1915	-89	20	-87
2031	-18	89	1934	-89	20	-87
2036	-20	89	1923	-89	20	-87
2041	-25	90	1933	-89	20	-87
2046	-23	92	1923	-89	20	-87
2051	119	1383	2057	-1507	49	324
2056	19	-329	2073	-1507	49	324
2061	-279	-27	2120	-1507	49	324
2066	-107	277	2196	-1507	49	324
2071	14	188	1928	-1507	49	324
2076	-15	149	1887	-1507	49	324
2081	-26	127	1897	-6310	1135	-3029
2086	-12	99	1887	-6310	1135	-3029
2091	-30	49	1994	-6310	1135	-3029
2096	2	-549	1981	-6310	1135	-3029
2101	793	-724	1273	-6310	1135	-3029
2106	89	-1008	1368	-6310	1135	-3029
2111	59	1539	1285	3336	-208	-1656
2116	107	1256	2671	3336	-208	-1656
2121	11	995	1563	3336	-208	-1656
2126	-724	-345	1607	3336	-208	-1656
2131	-643	-1021	1569	3336	-208	-1656
2136	-338	-1121	1683	3336	-208	-1656
2141	-323	-1627	3055	29	-1158	-678
2146	-217	-1137	1860	29	-1158	-678
2151	-277	-1154	1796	29	-1158	-678
2156	-32	-1226	2032	29	-1158	-678
2161	445	-1027	2380	29	-1158	-678
2166	797	-408	2745	29	-1158	-678
2171	823	263	3109	29	-1158	-678
2176	664	835	3355	1707	-986	-5478
2181	315	1442	3228	1707	-986	-5478
2186	456	1820	2894	1707	-986	-5478
2191	668	2030	2790	1707	-986	-5478
2196	735	2140	2946	1707	-986	-5478
2201	933	1945	3171	1707	-986	-5478
2206	1091	1534	3351	1839	2730	-4202
2211	1171	948	3536	1839	2730	-4202
2216	1176	347	3856	1839	2730	-4202
2221	1013	-296	3924	1839	2730	-4202
2226	825	-642	3852	1839	2730	-4202
2231	646	-740	3614	1839	2730	-4202
2236	336	-550	3305	-52	2650	-1007
2241	102	-456	2917	-52	2650	-1007
2246	123	-309	2414	-52	2650	-1007
2251	517	-127	1664	-52	2650	-1007
2256	464	-471	1353	-52	2650	-1007
2261	583	-246	1191	-52	2650	-1007
2266	245	-73	944	-887	376	8
2271	-157	-25	696	-887	376	8
2276	-386	-14	500	-887	376	8
2281	-675	254	664	-887	376	8
2286	-770	76	692	-887	376	8
2291	-697	-254	788	-887	376	8
2296	-727	-119	979	-2734	1511	-78
2301	-484	-148	1130	-2734	1511	-78
2306	-466	491	1778	-2734	1511	-78
2311	-138	682	1942	-2734	1511	-78
2316	145	520	2112	-2734	1511	-78
2321	294	205	2211	-2734	1511	-78
2326	221	-158	1869	-2734	1511	-78
2331	-210	-451	1318	-1111	-1252	100
2336	-606	-307	763	-1111	-1252	100
2341	-872	183	260	-1111	-1252	100
2346	-1029	708	-27	-1111	-1252	100
2351	-1039	854	193	-1111	-1252	100
2356	-824	607	562	-1111	-1252	100
2361	-671	359	1054	-751	-443	90
2366	-495	223	1617	-751	-443	90
2371	-355	329	2037	-751	-443	90
2376	-308	345	2234	-751	-443	90
2381	-411	149	2158	-751	-443	90
2386	-539	-59	2089	-751	-443	90
2391	-532	-286	1999	-975	-475	559
2396	-636	-310	1623	-975	-475	559
2401	-233	-1473	781	-975	-475	559
2406	-256	-618	1466	-975	-475	559
2411	-106	262	1978	-975	-475	559
2416	23	330	1797	-975	-475	559
2421	-42	269	1561	-505	-402	-418
2426	-127	180	1347	-505	-402	-418
2431	-309	65	1406	-505	-402	-418
2436	-283	-134	1480	-505	-402	-418
2441	-183	-227	1775	-505	-402	-418
2446	-145	-189	2046	-505	-402	-418
2451	-213	-199	2097	-683	-168	87
2456	-265	-277	2086	-683	-168	87
2461	-342	-249	2073	-683	-168	87
2466	-348	-200	1934	-683	-168	87
2471	-359	-249	1791	-683	-168	87
2476	-445	-157	1625	-683	-168	87
2481	-497	-15	1541	-683	-168	87
2486	-443	-181	1756	-292	-383	1
2491	-365	-257	1975	-292	-383	1
2496	-348	-179	1874	-292	-383	1
2501	-263	-95	1800	-292	-383	1
2506	-308	-291	2046	-292	-383	1
2511	-211	-292	1981	-292	-383	1
2516	-215	-297	1953	286	-40	-371
2521	-208	-333	2031	286	-40	-371
2526	-186	-346	2053	286	-40	-371
2531	-217	-251	1943	286	-40	-371
2536	-224	-207	1872	286	-40	-371
2541	-177	-241	1945	286	-40	-371
2546	-314	-11	2122	-100	-115	-578
2551	-367	-320	1943	-100	-115	-578
2556	-413	-454	1690	-100	-115	-578
2561	-421	-137	1798	-100	-115	-578
2566	-306	-332	1798	-100	-115	-578
2571	-317	-85	1830	-100	-115	-578
2576	-256	-80	1864	-693	-101	-908
2581	-12	-422	1529	-693	-101	-908
2586	-14	-342	1589	-693	-101	-908
2591	-188	19	1961	-693	-101	-908
2596	31	-467	1456	-693	-101	-908
2601	-229	-457	2194	-693	-101	-908
2606	-307	-256	2075	-3589	1235	-593
2611	-312	-156	2264	-3589	1235	-593
2616	-128	-481	2211	-3589	1235	-593
2621	-131	-259	2067	-3589	1235	-593
2626	-154	-330	2013	-3589	1235	-593
2631	-272	-384	2107	-3589	1235	-593
2636	-138	-467	1906	-3589	1235	-593
2641	10	-405	1702	781	189	415
2646	-60	-363	1669	781	189	415
2651	-263	-570	1582	781	189	415
2656	-270	-878	1261	781	189	415
2661	-774	-993	1720	781	189	415
2666	-948	-1130	2014	781	189	415
2671	-914	-1030	1954	472	223	-18
2676	-927	-1146	2003	472	223	-18
2681	-976	-1197	2086	472	223	-18
2686	-708	-1023	1686	472	223	-18
2691	-186	-673	1490	472	223	-18
2696	-439	-361	1661	472	223	-18
2701	-306	-436	1526	-602	-1011	405
2706	-226	-474	1731	-602	-1011	405
2711	455	-417	1938	-602	-1011	405
2716	379	-523	2119	-602	-1011	405
2721	205	-422	2022	-602	-1011	405
2726	4	-651	1887	-602	-1011	405
2731	-233	-768	2002	588	671	-18
2736	-560	-636	1892	588	671	-18
2741	-574	-611	1881	588	671	-18
2746	-610	-551	2088	588	671	-18
2751	-615	-432	2119	588	671	-18
2756	-465	-449	2160	588	671	-18
2761	4	-610	1798	-1125	754	285
2766	239	-709	2040	-1125	754	285
2771	154	-400	1775	-1125	754	285
2776	65	-396	1623	-1125	754	285
2781	-116	-363	1830	-1125	754	285
2786	-424	-557	1922	-1125	754	285
2791	-415	-1022	1682	-1125	754	285
2796	-691	-879	1951	-24	-234	-42
2801	-766	-941	1962	-24	-234	-42
2806	-658	-888	2069	-24	-234	-42
2811	-654	-985	1760	-24	-234	-42
2816	-673	-767	1405	-24	-234	-42
2821	-678	-480	901	-24	-234	-42
2826	-538	-646	1170	-118	-428	689
2831	-467	-734	1226	-118	-428	689
2836	-454	-795	1504	-118	-428	689
2841	-538	-842	1814	-118	-428	689
2846	-503	-850	1974	-118	-428	689
2851	-396	-958	2110	-118	-428	689
2856	-337	-1010	2077	487	-606	155
2861	-483	-1105	1973	487	-606	155
2866	-314	-853	1638	487	-606	155
2871	-432	-673	1494	487	-606	155
2876	-525	-418	1788	487	-606	155
2881	-207	-502	1942	487	-606	155
2886	-76	-519	1708	-91	196	-212
2891	-100	-485	1868	-91	196	-212
2896	-114	-695	1989	-91	196	-212
2901	-191	-830	1977	-91	196	-212
2906	-172	-837	2171	-91	196	-212
2911	-204	-814	2209	-91	196	-212
2916	-283	-817	2097	5045	2016	-658
2921	-329	-349	1848	5045	2016	-658
2926	-268	-186	1575	5045	2016	-658
2931	-445	-177	1253	5045	2016	-658
2936	-230	-257	4589	5045	2016	-658
2941	779	-1474	3460	5045	2016	-658
2946	-115	-975	1635	5045	2016	-658
2951	-182	-199	1385	7211	1366	-1025
2956	-119	106	1525	7211	1366	-1025
2961	-188	-3	2371	7211	1366	-1025
2966	-586	-423	2382	7211	1366	-1025
2971	-614	47	1665	7211	1366	-1025
2976	-805	446	1292	7211	1366	-1025
2981	-965	238	496	943	-866	-1886
2986	-1455	128	-635	943	-866	-1886
2991	-1337	1075	545	943	-866	-1886
2996	-1166	675	1106	943	-866	-1886
3001	-677	421	1481	943	-866	-1886
3006	-562	387	1691	943	-866	-1886
3011	-576	669	1484	-2009	-486	-1322
3016	-577	722	1251	-2009	-486	-1322
3021	-159	718	919	-2009	-486	-1322
3026	-386	571	1552	-2009	-486	-1322
3031	-737	568	1582	-2009	-486	-1322
3036	-1054	482	1417	-2009	-486	-1322
3041	-1051	464	1233	-783	-1365	-1137
3046	-613	644	1263	-783	-1365	-1137
3051	-599	785	1940	-783	-1365	-1137
3056	-1079	400	1715	-783	-1365	-1137
3061	-583	207	1517	-783	-1365	-1137
3066	-355	678	1738	-783	-1365	-1137
3071	-516	446	1356	906	62	-1854
3076	-493	646	1486	906	62	-1854
3081	-344	559	1476	906	62	-1854
3086	-510	385	1691	906	62	-1854
3091	-382	446	1752	906	62	-1854
3096	-277	444	1733	906	62	-1854
3101	-364	429	1776	906	62	-1854
3106	-322	415	1725	34	1031	-4
3111	-454	343	1718	34	1031	-4
3116	-631	517	1872	34	1031	-4
3121	-373	440	1883	34	1031	-4
3126	-1107	295	2214	34	1031	-4
3131	-706	593	1834	34	1031	-4
3136	-280	787	1697	3598	622	-1501
3141	-126	636	1734	3598	622	-1501
3146	-371	479	1789	3598	622	-1501
3151	-662	257	1682	3598	622	-1501
3156	-849	126	2451	3598	622	-1501
3161	-493	-93	2577	3598	622	-1501
3166	-456	90	1871	-94	-1794	-1492
3171	-638	446	1172	-94	-1794	-1492
3176	-237	919	1255	-94	-1794	-1492
3181	-573	720	1408	-94	-1794	-1492
3186	-889	545	1156	-94	-1794	-1492
3191	-985	514	1196	-94	-1794	-1492
3196	-804	310	1406	-6	-549	-1606
3201	-550	126	1687	-6	-549	-1606
3206	-143	270	2090	-6	-549	-1606
3211	-58	497	2119	-6	-549	-1606
3216	-5	542	1914	-6	-549	-1606
3221	-180	605	1835	-6	-549	-1606
3226	-288	618	1821	14	-2043	-1369
3231	-381	660	1679	14	-2043	-1369
3236	-298	424	1485	14	-2043	-1369
3241	-286	352	1184	14	-2043	-1369
3246	-455	229	1660	14	-2043	-1369
3251	-318	293	1904	14	-2043	-1369
3256	-200	324	1952	14	-2043	-1369
3261	-93	276	1910	734	-2332	-1936
3266	-114	360	1823	734	-2332	-1936
3271	-204	386	1632	734	-2332	-1936
3276	-226	466	1450	734	-2332	-1936
3281	-275	479	1455	734	-2332	-1936
3286	-227	216	1648	734	-2332	-1936
3291	-199	280	1962	-260	-1399	-1079
3296	-193	339	2289	-260	-1399	-1079
3301	-260	357	2356	-260	-1399	-1079
3306	-163	391	2259	-260	-1399	-1079
3311	-65	477	2088	-260	-1399	-1079
3316	-160	480	1882	-260	-1399	-1079
3321	-213	370	1624	-224	-315	-1195
3326	-236	315	1652	-224	-315	-1195
3331	-123	327	1924	-224	-315	-1195
3336	-5	279	2204	-224	-315	-1195
3341	-46	354	2312	-224	-315	-1195
3346	137	447	2180	-224	-315	-1195
3351	266	498	2155	-1049	-4	-29
3356	68	495	2004	-1049	-4	-29
3361	-19	450	1804	-1049	-4	-29
3366	-117	433	1711	-1049	-4	-29
3371	-147	373	1684	-1049	-4	-29
3376	-119	327	1786	-1049	-4	-29
3381	-25	338	1881	-484	411	56
3386	8	279	1975	-484	411	56
3391	0	262	2143	-484	411	56
3396	-17	203	2166	-484	411	56
3401	103	250	2067	-484	411	56
3406	116	272	2008	-484	411	56
3411	80	240	2024	-484	411	56
3416	94	210	1931	-864	612	389
3421	102	132	1896	-864	612	389
3426	52	140	2000	-864	612	389
3431	19	103	2087	-864	612	389
3436	118	193	2122	-864	612	389
3441	226	149	2213	-864	612	389
3446	191	219	2221	-637	408	141
3451	106	177	2116	-637	408	141
3456	20	170	1905	-637	408	141
3461	12	177	1739	-637	408	141
3466	51	151	1701	-637	408	141
3471	82	182	1739	-637	408	141
3476	126	292	1756	1010	-211	-918
3481	254	251	1799	1010	-211	-918
3486	364	305	1833	1010	-211	-918
3491	273	217	1847	1010	-211	-918
3496	90	184	1871	1010	-211	-918
3501	-87	192	1869	1010	-211	-918
3506	-172	212	1927	1482	-690	-554
3511	-183	169	2027	1482	-690	-554
3516	-219	249	2084	1482	-690	-554
3521	-384	108	1911	1482	-690	-554
3526	-270	221	1815	1482	-690	-554
3531	-257	300	1773	1482	-690	-554
3536	-196	280	1676	598	-245	-92
3541	-131	330	1727	598	-245	-92
3546	-125	386	1867	598	-245	-92
3551	-167	358	1951	598	-245	-92
3556	-118	398	2017	598	-245	-92
3561	-153	425	2053	598	-245	-92
3566	-57	400	1990	598	-245	-92
3571	-13	445	1912	2055	-796	-305
3576	104	460	1847	2055	-796	-305
3581	121	433	1794	2055	-796	-305
3586	76	408	1747	2055	-796	-305
3591	210	441	1900	2055	-796	-305
3596	309	649	2106	2055	-796	-305
3601	226	690	2095	1726	-724	-303
3606	364	684	2029	1726	-724	-303
3611	414	781	1948	1726	-724	-303
3616	336	832	1894	1726	-724	-303
3621	334	802	1865	1726	-724	-303
3626	252	936	1812	1726	-724	-303
3631	175	888	1772	511	-84	159
3636	71	926	1663	511	-84	159
3641	65	894	1543	511	-84	159
3646	49	980	1527	511	-84	159
3651	-110	993	1575	511	-84	159
3656	-156	857	1597	511	-84	159
3661	-4	940	1515	274	-205	-61
3666	104	879	1529	274	-205	-61
3671	159	955	1547	274	-205	-61
3676	250	1035	1487	274	-205	-61
3681	228	934	1549	274	-205	-61
3686	139	947	1606	274	-205	-61
3691	109	935	1661	-82	648	456
3696	97	947	1692	-82	648	456
3701	106	977	1738	-82	648	456
3706	87	909	1886	-82	648	456
3711	95	1091	2086	-82	648	456
3716	106	1219	2072	-82	648	456
3721	228	966	1724	-82	648	456
3726	281	891	1503	640	-181	52
3731	342	969	1414	640	-181	52
3736	399	1098	1393	640	-181	52
3741	345	1122	1406	640	-181	52
3746	249	1133	1406	640	-181	52
3751	221	1044	1465	640	-181	52
3756	195	1056	1449	1356	-482	242
3761	304	1143	1443	1356	-482	242
3766	339	1173	1332	1356	-482	242
3771	189	1041	1324	1356	-482	242
3776	180	1092	1206	1356	-482	242
3781	265	912	1113	1356	-482	242
3786	322	942	1169	2678	-1546	701
3791	408	1187	1465	2678	-1546	701
3796	395	1452	1845	2678	-1546	701
3801	284	1428	2080	2678	-1546	701
3806	304	1110	1163	2678	-1546	701
3811	252	991	1302	2678	-1546	701
3816	274	1200	1477	901	555	270
3821	485	1302	1662	901	555	270
3826	528	1957	2038	901	555	270
3831	228	2131	2054	901	555	270
3836	123	1847	1996	901	555	270
3841	159	1539	1559	901	555	270
3846	272	1327	1181	3408	-1713	982
3851	387	1367	1004	3408	-1713	982
3856	486	811	132	3408	-1713	982
3861	322	1143	525	3408	-1713	982
3866	268	1176	800	3408	-1713	982
3871	317	1499	1191	3408	-1713	982
3876	359	1536	1243	3408	-1713	982
3881	411	1688	1231	3352	-635	869
3886	269	1678	1012	3352	-635	869
3891	355	1473	855	3352	-635	869
3896	708	1468	825	3352	-635	869
3901	623	1581	618	3352	-635	869
3906	944	1938	671	3352	-635	869
3911	801	2000	634	-254	1838	371
3916	1037	2085	963	-254	1838	371
3921	855	2111	867	-254	1838	371
3926	779	2092	789	-254	1838	371
3931	891	2107	893	-254	1838	371
3936	677	2275	590	-254	1838	371
3941	1150	2300	606	-5038	2807	61
3946	1358	2385	658	-5038	2807	61
3951	1027	2233	466	-5038	2807	61
3956	881	2056	444	-5038	2807	61
3961	754	1938	572	-5038	2807	61
3966	904	2006	441	-5038	2807	61
3971	1001	461	813	-1863	2698	-405
3976	711	1327	296	-1863	2698	-405
3981	612	2347	514	-1863	2698	-405
3986	697	2425	1304	-1863	2698	-405
3991	853	1706	1508	-1863	2698	-405
3996	925	1091	1319	-1863	2698	-405
4001	690	893	917	-19	105	11
4006	398	1232	962	-19	105	11
4011	431	1329	1113	-19	105	11
4016	444	1388	1165	-19	105	11
4021	402	1386	1228	-19	105	11
4026	291	1416	1369	-19	105	11
4031	225	1357	1540	-19	105	11
4036	283	1373	1704	-1650	1811	61
4041	364	1547	1625	-1650	1811	61
4046	515	1698	1483	-1650	1811	61
4051	285	1374	1370	-1650	1811	61
4056	391	1580	1025	-1650	1811	61
4061	230	1766	1278	-1650	1811	61
4066	221	1607	1465	-1011	1366	-475
4071	302	1527	1482	-1011	1366	-475
4076	286	1268	1398	-1011	1366	-475
4081	199	1048	1398	-1011	1366	-475
4086	93	1029	1262	-1011	1366	-475
4091	-155	1005	1291	-1011	1366	-475
4096	-220	865	1401	-1027	759	891
4101	-441	1148	1492	-1027	759	891
4106	-415	757	1657	-1027	759	891
4111	-629	618	1580	-1027	759	891
4116	-602	794	1387	-1027	759	891
4121	-470	755	1326	-1027	759	891
4126	-295	809	1031	-713	-439	427
4131	-168	793	817	-713	-439	427
4136	-74	911	909	-713	-439	427
4141	134	910	1729	-713	-439	427
4146	228	854	2332	-713	-439	427
4151	-137	1143	2017	-713	-439	427
4156	-98	940	2153	-1342	-1011	-247
4161	51	1038	2111	-1342	-1011	-247
4166	-47	1098	1969	-1342	-1011	-247
4171	-231	1087	1931	-1342	-1011	-247
4176	-146	923	1933	-1342	-1011	-247
4181	127	925	1880	-1342	-1011	-247
4186	241	679	1746	-1342	-1011	-247
4191	-993	1650	3651	-344	387	480
4196	-313	754	2275	-344	387	480
4201	90	659	1984	-344	387	480
4206	369	650	1685	-344	387	480
4211	178	808	2197	-344	387	480
4216	76	845	2048	-344	387	480
4221	-120	550	1699	1174	324	-1009
4226	22	661	1747	1174	324	-1009
4231	165	1378	2051	1174	324	-1009
4236	39	1273	1992	1174	324	-1009
4241	-139	822	1682	1174	324	-1009
4246	-175	435	1704	1174	324	-1009
4251	-69	575	1753	194	289	1977
4256	-549	94	1458	194	289	1977
4261	-160	340	1483	194	289	1977
4266	-151	490	1893	194	289	1977
4271	-97	702	1872	194	289	1977
4276	-102	701	1905	194	289	1977
4281	-139	630	2040	1119	886	1605
4286	48	772	1990	1119	886	1605
4291	202	925	1831	1119	886	1605
4296	141	1021	1512	1119	886	1605
4301	14	928	1617	1119	886	1605
4306	-78	1119	1530	1119	886	1605
4311	-186	1192	1330	651	-412	3285
4316	-452	1093	1434	651	-412	3285
4321	-289	911	1265	651	-412	3285
4326	-31	712	1358	651	-412	3285
4331	-117	711	1565	651	-412	3285
4336	-212	650	1548	651	-412	3285
4341	-255	687	1483	651	-412	3285
4346	-176	671	1577	-706	340	2693
4351	-120	784	1491	-706	340	2693
4356	53	902	1410	-706	340	2693
4361	304	1263	1330	-706	340	2693
4366	399	1111	1556	-706	340	2693
4371	693	1301	1634	-706	340	2693
4376	835	1465	1638	1264	-744	1177
4381	663	1368	1678	1264	-744	1177
4386	403	1278	1589	1264	-744	1177
4391	233	1061	1487	1264	-744	1177
4396	205	871	1431	1264	-744	1177
4401	325	853	1544	1264	-744	1177
4406	593	928	1641	-37	-512	-149
4411	708	1044	1669	-37	-512	-149
4416	644	1072	1771	-37	-512	-149
4421	1182	951	1992	-37	-512	-149
4426	1418	1327	1612	-37	-512	-149
4431	1589	1468	1302	-37	-512	-149
4436	1205	1716	1557	-2422	1724	1817
4441	756	1475	1764	-2422	1724	1817
4446	689	1104	1636	-2422	1724	1817
4451	671	1235	1692	-2422	1724	1817
4456	560	566	1517	-2422	1724	1817
4461	315	571	1692	-2422	1724	1817
4466	-48	820	1668	-38	-1064	420
4471	-337	1334	1546	-38	-1064	420
4476	147	447	1495	-38	-1064	420
4481	353	579	1431	-38	-1064	420
4486	487	106	1429	-38	-1064	420
4491	409	187	1378	-38	-1064	420
4496	351	640	1647	-38	-1064	420
4501	447	125	1738	-435	922	757
4506	637	131	1752	-435	922	757
4511	706	330	1951	-435	922	757
4516	883	536	1913	-435	922	757
4521	832	613	1821	-435	922	757
4526	693	715	1887	-435	922	757
4531	900	673	1856	1228	-333	922
4536	739	663	1883	1228	-333	922
4541	775	633	1817	1228	-333	922
4546	787	615	1746	1228	-333	922
4551	821	621	1742	1228	-333	922
4556	836	603	1762	1228	-333	922
4561	804	660	1578	279	521	814
4566	795	562	1742	279	521	814
4571	813	532	1671	279	521	814
4576	729	592	1631	279	521	814
4581	620	453	1635	279	521	814
4586	576	310	1724	279	521	814
4591	326	83	1962	308	-279	1126
4596	454	-52	2062	308	-279	1126
4601	483	31	1973	308	-279	1126
4606	677	331	1905	308	-279	1126
4611	773	609	1855	308	-279	1126
4616	1080	1110	1971	308	-279	1126
4621	1150	1204	2201	-56	547	229
4626	1091	1092	1983	-56	547	229
4631	1125	1230	1792	-56	547	229
4636	988	1102	1705	-56	547	229
4641	797	882	1432	-56	547	229
4646	553	642	1170	-56	547	229
4651	497	508	1322	-56	547	229
4656	741	731	1167	264	568	1495
4661	638	533	1499	264	568	1495
4666	665	432	1781	264	568	1495
4671	740	407	1958	264	568	1495
4676	686	422	1956	264	568	1495
4681	682	538	1835	264	568	1495
4686	703	649	1698	-342	411	319
4691	708	774	1572	-342	411	319
4696	740	949	1498	-342	411	319
4701	681	927	1443	-342	411	319
4706	668	808	1459	-342	411	319
4711	724	817	1461	-342	411	319
4716	638	472	1428	88	618	1092
4721	386	-78	1740	88	618	1092
4726	645	26	2150	88	618	1092
4731	711	269	2241	88	618	1092
4736	721	539	2018	88	618	1092
4741	724	757	1801	88	618	1092
4746	597	806	1769	830	152	762
4751	581	805	1770	830	152	762
4756	519	764	1771	830	152	762
4761	680	711	1770	830	152	762
4766	795	697	1812	830	152	762
4771	723	593	1819	830	152	762
4776	668	448	1974	32	614	484
4781	653	490	1953	32	614	484
4786	546	659	1855	32	614	484
4791	637	867	1682	32	614	484
4796	648	982	1394	32	614	484
4801	639	1032	1199	32	614	484
4806	610	949	1069	32	614	484
4811	550	807	1041	-604	585	1155
4816	460	674	1105	-604	585	1155
4821	421	596	1304	-604	585	1155
4826	371	598	1491	-604	585	1155
4831	380	690	1644	-604	585	1155
4836	451	840	1787	-604	585	1155
4841	451	948	1893	-822	507	264
4846	522	1120	1985	-822	507	264
4851	620	1233	2110	-822	507	264
4856	681	1317	2255	-822	507	264
4861	763	1305	2303	-822	507	264
4866	591	1241	2335	-822	507	264
4871	436	1097	2215	49	-202	-1378
4876	264	975	1972	49	-202	-1378
4881	250	838	1834	49	-202	-1378
4886	218	752	1789	49	-202	-1378
4891	366	849	1735	49	-202	-1378
4896	144	928	1403	49	-202	-1378
4901	326	996	1272	933	-57	-2418
4906	327	1060	1292	933	-57	-2418
4911	616	1037	1209	933	-57	-2418
4916	447	960	1171	933	-57	-2418
4921	252	1025	1323	933	-57	-2418
4926	551	780	1476	933	-57	-2418
4931	323	989	1873	877	294	-3503
4936	186	846	1955	877	294	-3503
4941	195	727	1990	877	294	-3503
4946	239	750	1793	877	294	-3503
4951	299	790	1776	877	294	-3503
4956	464	876	1612	877	294	-3503
4961	744	592	1615	877	294	-3503
4966	839	426	1443	-374	1615	-4140
4971	809	692	1724	-374	1615	-4140
4976	660	739	1978	-374	1615	-4140
4981	1130	1127	1974	-374	1615	-4140
4986	753	1431	2337	-374	1615	-4140
4991	404	1313	2624	-374	1615	-4140
4996	133	1569	2494	-4255	1229	-2019
5001	-222	1938	2514	-4255	1229	-2019
5006	-567	1790	2189	-4255	1229	-2019
5011	-807	1423	1857	-4255	1229	-2019
5016	-626	1391	1619	-4255	1229	-2019
5021	-533	1506	1698	-4255	1229	-2019
5026	-404	1597	2070	-4197	2093	-2541
5031	-282	1615	2491	-4197	2093	-2541
5036	-113	1213	2881	-4197	2093	-2541
5041	-331	1055	2607	-4197	2093	-2541
5046	-557	769	2361	-4197	2093	-2541
5051	-225	540	2236	-4197	2093	-2541
5056	-40	878	2453	-1130	5051	-4918
5061	75	1389	2837	-1130	5051	-4918
5066	-174	1733	2823	-1130	5051	-4918
5071	-76	931	2513	-1130	5051	-4918
5076	165	78	2102	-1130	5051	-4918
5081	322	-642	1480	-1130	5051	-4918
5086	199	-1173	932	-2532	3681	-3598
5091	99	-1250	824	-2532	3681	-3598
5096	-398	-1341	664	-2532	3681	-3598
5101	-537	-1333	562	-2532	3681	-3598
5106	-517	-1315	436	-2532	3681	-3598
5111	-451	-1214	219	-2532	3681	-3598
5116	-387	-1082	-73	-2532	3681	-3598
5121	-167	-1024	-301	-2674	1998	-3909
5126	-41	-1103	-469	-2674	1998	-3909
5131	-135	-1222	-571	-2674	1998	-3909
5136	-69	-1311	-719	-2674	1998	-3909
5141	79	-1386	-810	-2674	1998	-3909
5146	39	-1450	-928	-2674	1998	-3909
5151	-55	-1505	-1076	6691	1511	-2948
5156	8	-1497	-1152	6691	1511	-2948
5161	110	-1461	-1232	6691	1511	-2948
5166	-522	-1822	2142	6691	1511	-2948
5171	239	-2255	2051	6691	1511	-2948
5176	-55	-2195	2803	6691	1511	-2948
5181	-232	-1921	2553	-529	-2104	598
5186	-325	-1465	1638	-529	-2104	598
5191	-837	-1282	217	-529	-2104	598
5196	-959	-2205	-1111	-529	-2104	598
5201	-1173	-2577	-2160	-529	-2104	598
5206	-780	-2230	-2110	-529	-2104	598
5211	-886	-1306	-1306	-3879	-475	-172
5216	-727	-1133	-448	-3879	-475	-172
5221	-126	-1360	366	-3879	-475	-172
5226	187	-1369	1013	-3879	-475	-172
5231	11	-1140	1548	-3879	-475	-172
5236	-405	-1050	1897	-3879	-475	-172
5241	-415	-1009	1780	-7791	-1207	-2636
5246	-61	-933	1290	-7791	-1207	-2636
5251	104	-830	810	-7791	-1207	-2636
5256	115	-725	536	-7791	-1207	-2636
5261	81	-635	333	-7791	-1207	-2636
5266	79	-411	-95	-7791	-1207	-2636
5271	330	525	-1083	-7791	-1207	-2636
5276	574	1456	-1218	-1212	-510	-6559
5281	920	1799	-559	-1212	-510	-6559
5286	1405	1301	92	-1212	-510	-6559
5291	1638	247	567	-1212	-510	-6559
5296	1945	-1722	916	-1212	-510	-6559
5301	1972	-3626	1230	-1212	-510	-6559
5306	2241	-5134	1201	60	1444	-3431
5311	2434	-5331	1512	60	1444	-3431
5316	2066	-4284	1957	60	1444	-3431
5321	1709	-2637	2199	60	1444	-3431
5326	1672	-1697	1781	60	1444	-3431
5331	1521	-1713	924	60	1444	-3431
5336	1404	-1836	-161	-958	-582	-2941
5341	1719	-2104	-810	-958	-582	-2941
5346	1611	-2364	-775	-958	-582	-2941
5351	1536	-2624	-216	-958	-582	-2941
5356	1507	-3182	443	-958	-582	-2941
5361	1574	-3976	852	-958	-582	-2941
5366	1558	-5661	1249	-165	-88	1877
5371	1837	-7119	1309	-165	-88	1877
5376	1410	-6862	1334	-165	-88	1877
5381	1260	-5964	1025	-165	-88	1877
5386	1482	-5071	523	-165	-88	1877
5391	1458	-4705	59	-165	-88	1877
5396	1484	-5773	118	2106	216	8413
5401	1667	-6951	550	2106	216	8413
5406	1788	-7858	936	2106	216	8413
5411	2016	-8488	1146	2106	216	8413
5416	2195	-8891	1091	2106	216	8413
5421	2384	-9274	1103	2106	216	8413
5426	3048	-9311	1199	2106	216	8413
5431	3411	-8551	1585	-3611	4172	13846
5436	3767	-7686	1964	-3611	4172	13846
5441	4401	-6576	2017	-3611	4172	13846
5449	5104	-3707	1408	-3611	4172	13846
5451	5125	-3092	1282	-3611	4172	13846
5456	4623	-1607	771	-3611	4172	13846
5461	4118	-573	206	-8915	-2137	14648
5466	3590	-449	-148	-8915	-2137	14648
5471	2918	-350	-98	-8915	-2137	14648
5476	2746	-68	-65	-8915	-2137	14648
5481	2733	-64	-36	-8915	-2137	14648
5486	2750	-67	-58	-8915	-2137	14648
5491	2753	-72	-52	-7505	-9004	11803
5496	2759	-71	-53	-7505	-9004	11803
5501	2767	-69	-68	-7505	-9004	11803
5506	2772	-65	-77	-7505	-9004	11803
5511	2769	-66	-91	-7505	-9004	11803
5516	2772	-55	-78	-7505	-9004	11803
5521	2778	-52	-76	-5509	-12805	7432
5526	2770	-59	-72	-5509	-12805	7432
5531	2762	-49	-77	-5509	-12805	7432
5536	2755	-34	-74	-5509	-12805	7432
5541	2757	-29	-79	-5509	-12805	7432
5546	2756	-32	-65	-5509	-12805	7432
5551	2744	-28	-66	-4024	-14368	3767
5556	2739	-26	-59	-4024	-14368	3767
5561	2736	-29	-65	-4024	-14368	3767
5566	2733	-27	-64	-4024	-14368	3767
5571	2716	-34	-60	-4024	-14368	3767
5576	2719	-23	-52	-4024	-14368	3767
5581	2711	-24	-34	-4024	-14368	3767
5586	2710	-29	-44	-3376	-14791	625
5591	2703	-22	-55	-3376	-14791	625
5596	2691	-19	-55	-3376	-14791	625
5601	2686	-28	-51	-3376	-14791	625
5606	2684	-32	-46	-3376	-14791	625
5611	2683	-28	-74	-3376	-14791	625
5616	2673	-32	-54	-3472	-14634	-2214
5621	2668	-39	-44	-3472	-14634	-2214
5626	2664	-34	-58	-3472	-14634	-2214
5631	2656	-34	-57	-3472	-14634	-2214
5636	2653	-36	-66	-3472	-14634	-2214
5641	2645	-47	-77	-3472	-14634	-2214
5646	2638	-49	-66	-23273	5197	-1014
5651	2622	-56	-55	-23273	5197	-1014
5656	2612	-58	-58	-23273	5197	-1014
5661	2607	-59	-60	-23273	5197	-1014
5666	2584	-61	-48	-23273	5197	-1014
5671	-7054	-1879	905	-23273	5197	-1014
5676	-2416	6331	-5603	-522	-2736	1175
5681	122	2829	-1586	-522	-2736	1175
5686	376	1406	-412	-522	-2736	1175
5691	-503	1342	-173	-522	-2736	1175
5696	-26	1268	240	-522	-2736	1175
5701	379	1124	-2638	-522	-2736	1175
5706	29	2877	-3813	-3987	1330	3679
5711	-1322	2898	-2772	-3987	1330	3679
5716	-1295	1580	-1867	-3987	1330	3679
5721	-1416	-114	2036	-3987	1330	3679
5726	-155	460	4384	-3987	1330	3679
5731	-2364	-470	2030	-3987	1330	3679
5736	-2059	-1175	1208	-3987	1330	3679
5741	-1333	-918	759	-2122	1038	3696
5746	-721	-455	852	-2122	1038	3696
5751	-116	396	631	-2122	1038	3696
5756	85	1202	49	-2122	1038	3696
5761	579	1526	-675	-2122	1038	3696
5766	652	1310	-1099	-2122	1038	3696
5771	396	1397	-1050	-2705	-2573	4250
5776	89	1362	-828	-2705	-2573	4250
5781	-233	942	-426	-2705	-2573	4250
5786	-178	387	-39	-2705	-2573	4250
5791	394	43	293	-2705	-2573	4250
5796	772	-97	496	-2705	-2573	4250
5801	1151	-104	580	5059	202	5262
5806	1329	-3	743	5059	202	5262
5811	1878	615	1645	5059	202	5262
5816	1806	717	1591	5059	202	5262
5821	1975	1245	1735	5059	202	5262
5826	2453	2397	1635	5059	202	5262
5831	2862	3111	534	-4479	1497	2799
5836	2914	3092	-114	-4479	1497	2799
5841	2541	2338	-240	-4479	1497	2799
5846	2676	1928	-256	-4479	1497	2799
5851	3278	2268	-391	-4479	1497	2799
5856	2697	3115	-838	-4479	1497	2799
5861	2429	4734	-859	2273	202	636
5866	3233	6321	-906	2273	202	636
5871	3376	6521	-1326	2273	202	636
5876	3320	5946	-1836	2273	202	636
5881	3131	6009	-2025	2273	202	636
5886	3027	6600	-1935	2273	202	636
5891	2974	7379	-1841	2273	202	636
5896	2637	7733	-1850	319	-577	-5265
5901	2421	7401	-1703	319	-577	-5265
5906	2474	6861	-1467	319	-577	-5265
5911	2552	6374	-1011	319	-577	-5265
5916	2832	6224	-615	319	-577	-5265
5921	3220	6745	-471	319	-577	-5265
5926	3510	7388	-645	2029	-3057	-10529
5931	3852	7637	-841	2029	-3057	-10529
5936	4132	7511	-1079	2029	-3057	-10529
5941	4563	6836	-1408	2029	-3057	-10529
5946	4787	5622	-1669	2029	-3057	-10529
5951	4578	4505	-1499	2029	-3057	-10529
5956	4622	3528	-1118	-4532	-3833	-12367
5961	4358	2307	-1032	-4532	-3833	-12367
5966	4104	1442	-742	-4532	-3833	-12367
5971	3988	735	-638	-4532	-3833	-12367
5976	3350	390	-237	-4532	-3833	-12367
5981	2141	-160	-41	-4532	-3833	-12367
5986	1999	-86	-129	-5031	10	-12944
5991	1991	-80	-123	-5031	10	-12944
5996	1985	-78	-134	-5031	10	-12944
6001	1976	-65	-142	-5031	10	-12944
6006	1971	-55	-143	-5031	10	-12944
6011	1968	-46	-145	-5031	10	-12944
6016	1961	-45	-146	-4499	4109	-12303
6021	1962	-38	-154	-4499	4109	-12303
6026	1960	-35	-152	-4499	4109	-12303
6031	1959	-21	-150	-4499	4109	-12303
6036	1954	-19	-150	-4499	4109	-12303
6041	1962	-6	-162	-4499	4109	-12303
6046	1954	-11	-152	-4499	4109	-12303
6051	1957	-7	-136	-3333	6835	-11057
6056	1963	-4	-156	-3333	6835	-11057
6061	1956	-2	-149	-3333	6835	-11057
6066	1969	1	-161	-3333	6835	-11057
6071	1966	15	-155	-3333	6835	-11057
6076	1961	6	-137	-3333	6835	-11057
6081	1965	12	-163	-1846	8532	-9598
6086	1969	9	-156	-1846	8532	-9598
6091	1969	13	-147	-1846	8532	-9598
6096	1970	17	-160	-1846	8532	-9598
6101	1967	15	-155	-1846	8532	-9598
6106	1974	24	-140	-1846	8532	-9598
6111	1972	27	-144	-275	9166	-9065
6116	1986	26	-128	-275	9166	-9065
6121	1987	19	-144	-275	9166	-9065
6126	1982	19	-134	-275	9166	-9065
6131	1996	18	-117	-275	9166	-9065
6136	1988	7	-114	-275	9166	-9065
6141	2001	15	-106	3675	-462	-2575
6146	18969	-5550	-19715	3675	-462	-2575
6151	2642	-507	-390	3675	-462	-2575
6156	1906	-874	1852	3675	-462	-2575
6161	2927	-3807	-3982	3675	-462	-2575
6166	2439	-1919	-203	3675	-462	-2575
6171	2771	-459	-1352	-9601	524	-4006
6176	2381	443	-685	-9601	524	-4006
6181	2361	475	-83	-9601	524	-4006
6186	2344	589	722	-9601	524	-4006
6191	2110	619	832	-9601	524	-4006
6196	1311	611	-174	-9601	524	-4006
6201	1245	965	82	-9601	524	-4006
6206	1415	1539	1559	-810	8083	-8050
6211	1643	2472	3267	-810	8083	-8050
6216	1640	1751	2668	-810	8083	-8050
6221	1943	618	2508	-810	8083	-8050
6226	2124	1084	2270	-810	8083	-8050
6231	2753	9177	1224	-810	8083	-8050
6236	2927	9180	1992	-1117	-4373	-103
6241	2388	3694	1773	-1117	-4373	-103
6246	5156	-916	-6176	-1117	-4373	-103
6251	8669	-22	-6375	-1117	-4373	-103
6256	5982	3584	-1854	-1117	-4373	-103
6261	2423	11482	7669	-1117	-4373	-103
6266	407	-236	576	-1704	-315	-500
6271	3460	977	1954	-1704	-315	-500
6276	-1629	768	5461	-1704	-315	-500
6281	-3291	-1712	4101	-1704	-315	-500
6286	-3314	-1444	2450	-1704	-315	-500
6291	-3520	-1187	2260	-1704	-315	-500
6296	-3162	-1115	2311	-2247	1755	551
6301	-2365	-916	2126	-2247	1755	551
6306	-1664	-1173	3117	-2247	1755	551
6311	-795	-1504	3643	-2247	1755	551
6316	65	-1395	3493	-2247	1755	551
6321	565	-1054	3342	-2247	1755	551
6326	1008	-656	2998	-3436	4216	912
6331	1047	-184	2740	-3436	4216	912
6336	873	368	2436	-3436	4216	912
6341	692	673	2326	-3436	4216	912
6346	437	850	2034	-3436	4216	912
6351	167	801	1660	-3436	4216	912
6356	-185	644	1775	-3436	4216	912
6361	443	759	1381	1831	612	-3087
6366	392	846	1595	1831	612	-3087
6371	303	779	1527	1831	612	-3087
6376	-203	257	1320	1831	612	-3087
6381	-1024	13	1110	1831	612	-3087
6386	724	445	1559	1831	612	-3087
6391	-523	23	2336	3921	-132	620
6396	-1601	-415	1815	3921	-132	620
6401	-2530	-923	1537	3921	-132	620
6406	-2083	-830	1203	3921	-132	620
6411	-1824	-460	882	3921	-132	620
6416	-436	-138	576	3921	-132	620
6421	-15	771	1210	6661	1715	-2302
6426	-86	1420	1656	6661	1715	-2302
6431	-217	1874	2110	6661	1715	-2302
6436	-135	2048	2739	6661	1715	-2302
6441	-140	1898	3351	6661	1715	-2302
6446	-207	1580	3467	6661	1715	-2302
6451	-215	1180	3029	11254	-924	-3095
6456	-456	938	2256	11254	-924	-3095
6461	-421	628	1596	11254	-924	-3095
6466	-137	195	1207	11254	-924	-3095
6471	135	-16	878	11254	-924	-3095
6476	310	304	904	11254	-924	-3095
6481	794	93	530	768	373	2254
6486	1283	847	303	768	373	2254
6491	1589	1376	-313	768	373	2254
6496	667	-125	177	768	373	2254
6501	-642	-259	471	768	373	2254
6506	-2125	-782	982	768	373	2254
6511	-2057	-116	1490	768	373	2254
6516	-701	630	1730	-1629	3691	3573
6521	-82	807	1889	-1629	3691	3573
6526	531	1031	1872	-1629	3691	3573
6531	772	671	1236	-1629	3691	3573
6536	790	180	818	-1629	3691	3573
6541	989	-530	707	-1629	3691	3573
6546	1355	-1253	244	-2669	1765	10775
6551	1628	-1740	-330	-2669	1765	10775
6556	2170	-1794	-787	-2669	1765	10775
6561	2773	-1194	-1396	-2669	1765	10775
6566	3124	-171	-1880	-2669	1765	10775
6571	3615	1376	-2129	-2669	1765	10775
6576	4121	3441	-2560	1513	861	1810
6581	3949	5982	-2147	1513	861	1810
6586	3942	7684	-1170	1513	861	1810
6591	3051	8137	-261	1513	861	1810
6596	2426	7746	87	1513	861	1810
6601	2168	7375	-487	1513	861	1810
6606	2301	8001	-1364	2901	-498	-2463
6611	2346	8600	-1925	2901	-498	-2463
6616	2248	8415	-2202	2901	-498	-2463
6621	2234	7714	-2138	2901	-498	-2463
6626	2170	6825	-1722	2901	-498	-2463
6631	2129	6275	-1206	2901	-498	-2463
6636	2255	6570	-1012	2093	-2910	-10104
6641	2465	7560	-1264	2093	-2910	-10104
6646	2912	8422	-1746	2093	-2910	-10104
6651	3386	8952	-2073	2093	-2910	-10104
6656	3859	8967	-2264	2093	-2910	-10104
6661	4317	7926	-2287	2093	-2910	-10104
6666	4611	6183	-2158	2093	-2910	-10104
6671	4782	4503	-1865	-468	-6236	-12367
6676	4769	3450	-1771	-468	-6236	-12367
6681	5035	2748	-1519	-468	-6236	-12367
6686	4533	1656	-1269	-468	-6236	-12367
6691	4280	986	-850	-468	-6236	-12367
6696	3197	182	-336	-468	-6236	-12367
6701	2645	-150	-45	-1798	-5480	-13020
6706	2418	-101	-96	-1798	-5480	-13020
6711	2409	-95	-70	-1798	-5480	-13020
6716	2396	-86	-97	-1798	-5480	-13020
6721	2396	-82	-90	-1798	-5480	-13020
6726	2398	-83	-115	-1798	-5480	-13020
6731	2391	-77	-106	-2883	-3452	-13674
6736	2390	-77	-119	-2883	-3452	-13674
6741	2386	-84	-122	-2883	-3452	-13674
6746	2385	-77	-117	-2883	-3452	-13674
6751	2380	-81	-121	-2883	-3452	-13674
6756	2377	-76	-121	-2883	-3452	-13674
6761	2369	-78	-113	-3400	-610	-13972
6766	2355	-75	-131	-3400	-610	-13972
6771	2362	-70	-132	-3400	-610	-13972
6776	2352	-67	-113	-3400	-610	-13972
6781	2342	-71	-133	-3400	-610	-13972
6786	2334	-75	-142	-3400	-610	-13972
6791	2341	-65	-135	-3118	2423	-13773
6796	2342	-69	-138	-3118	2423	-13773
6801	2336	-64	-153	-3118	2423	-13773
6806	2335	-54	-136	-3118	2423	-13773
6811	2326	-45	-138	-3118	2423	-13773
6816	2326	-40	-138	-3118	2423	-13773
6821	2318	-43	-147	-3118	2423	-13773
6826	2327	-38	-142	-2259	4770	-13107
6831	2332	-26	-150	-2259	4770	-13107
6836	2324	-18	-165	-2259	4770	-13107
6841	2333	-20	-151	-2259	4770	-13107
6846	2335	-12	-140	-2259	4770	-13107
6851	2336	-10	-142	-2259	4770	-13107
6856	2333	-3	-146	-1015	6060	-12622
6861	2327	-6	-138	-1015	6060	-12622
6866	2336	-4	-131	-1015	6060	-12622
6871	2331	2	-141	-1015	6060	-12622
6876	2331	7	-126	-1015	6060	-12622
6881	2338	-1	-109	-1015	6060	-12622
6886	2334	-1	-131	-15017	-128	3418
6891	2321	5	-131	-15017	-128	3418
6896	2329	-9	-108	-15017	-128	3418
6901	2323	2	-125	-15017	-128	3418
6906	2407	4215	1952	-15017	-128	3418
6911	-3352	464	-1205	-15017	-128	3418
6916	-74	-66	194	1400	-4665	220
6921	733	60	154	1400	-4665	220
6926	1217	-310	-1364	1400	-4665	220
6931	559	112	-375	1400	-4665	220
6936	589	377	-104	1400	-4665	220
6941	1658	4115	4007	1400	-4665	220
6946	-381	2164	1611	-3406	-2419	803
6951	280	824	2776	-3406	-2419	803
6956	920	713	2336	-3406	-2419	803
6961	-241	-471	1158	-3406	-2419	803
6966	-298	-1426	-81	-3406	-2419	803
6971	-58	-1816	-867	-3406	-2419	803
6976	-28	-1586	-1260	-3406	-2419	803
6981	-101	-1104	-1486	-12379	-4017	5
6986	66	-837	-1520	-12379	-4017	5
6991	321	-711	-1284	-12379	-4017	5
6996	416	-518	-958	-12379	-4017	5
7001	227	-176	-416	-12379	-4017	5
7006	24	-15	49	-12379	-4017	5
7011	16	4	446	-1833	-1911	-5497
7016	389	-107	740	-1833	-1911	-5497
7021	1590	-502	1498	-1833	-1911	-5497
7026	3225	-552	832	-1833	-1911	-5497
7031	4562	-592	469	-1833	-1911	-5497
7036	4174	-1522	-545	-1833	-1911	-5497
7041	2884	-2041	-410	-3283	-2665	-4791
7046	2284	-2136	-185	-3283	-2665	-4791
7051	2413	-2758	-27	-3283	-2665	-4791
7056	2983	-3682	237	-3283	-2665	-4791
7061	4075	-4668	295	-3283	-2665	-4791
7066	4997	-5895	349	-3283	-2665	-4791
7071	5593	-7171	897	-1006	1264	547
7076	4561	-7568	2094	-1006	1264	547
7081	2930	-6767	3158	-1006	1264	547
7086	2538	-6138	3325	-1006	1264	547
7091	2320	-5703	2975	-1006	1264	547
7096	1916	-5682	2173	-1006	1264	547
7101	1956	-5341	907	97	39	3030
7106	2025	-4715	128	97	39	3030
7111	2080	-4479	-176	97	39	3030
7116	2153	-5038	-7	97	39	3030
7121	2200	-5792	550	97	39	3030
7126	2322	-6220	1167	97	39	3030
7131	2571	-6219	1479	97	39	3030
7136	2823	-6071	1460	130	1377	7638
7141	3081	-5951	1272	130	1377	7638
7146	3433	-6021	1065	130	1377	7638
7151	3604	-6294	1187	130	1377	7638
7156	3908	-6426	1262	130	1377	7638
7161	4233	-6249	1242	130	1377	7638
7166	4434	-5943	1223	1026	2353	11183
7171	4411	-5473	1036	1026	2353	11183
7176	4403	-4757	602	1026	2353	11183
7181	4592	-4189	9	1026	2353	11183
7186	4765	-3564	-471	1026	2353	11183
7191	4944	-2896	-667	1026	2353	11183
7196	4879	-2407	-392	-5562	711	15118
7201	3947	-2134	236	-5562	711	15118
7206	4000	-1402	463	-5562	711	15118
7211	3739	-644	264	-5562	711	15118
7216	2969	-141	117	-5562	711	15118
7221	2819	-54	-86	-5562	711	15118
7226	2814	-52	-102	-5100	-4246	14488
7231	2810	-60	-85	-5100	-4246	14488
7236	2818	-56	-88	-5100	-4246	14488
7241	2823	-57	-101	-5100	-4246	14488
7246	2817	-62	-84	-5100	-4246	14488
7251	2817	-50	-95	-5100	-4246	14488
7256	2814	-51	-112	-3465	-7851	12910
7261	2812	-51	-96	-3465	-7851	12910
7266	2812	-44	-95	-3465	-7851	12910
7271	2815	-32	-101	-3465	-7851	12910
7276	2807	-40	-105	-3465	-7851	12910
7281	2810	-30	-100	-3465	-7851	12910
7286	2807	-19	-95	-3465	-7851	12910
7291	2808	-14	-114	-1427	-9562	11744
7296	2793	-9	-105	-1427	-9562	11744
7301	2789	-6	-115	-1427	-9562	11744
7306	2787	7	-96	-1427	-9562	11744
7311	2775	0	-94	-1427	-9562	11744
7316	2772	7	-104	-1427	-9562	11744
7321	2772	4	-104	609	-9729	11541
7326	2758	8	-102	609	-9729	11541
7331	2754	2	-104	609	-9729	11541
7336	2748	3	-111	609	-9729	11541
7341	2751	13	-113	609	-9729	11541
7346	2733	4	-116	609	-9729	11541
7351	2720	5	-133	2585	-8238	12468
7356	2718	4	-132	2585	-8238	12468
7361	2721	13	-133	2585	-8238	12468
7366	2705	7	-135	2585	-8238	12468
7371	2698	13	-156	2585	-8238	12468
7376	2681	15	-136	2585	-8238	12468
7381	2679	0	-146	4106	-5210	13854
7386	2661	2	-145	4106	-5210	13854
7391	2664	0	-160	4106	-5210	13854
7396	2644	-1	-150	4106	-5210	13854
7401	2631	-10	-157	4106	-5210	13854
7406	2620	-12	-171	4106	-5210	13854
7411	2618	-18	-171	-6507	7110	-494
7416	-8737	7739	262	-6507	7110	-494
7421	-50	-1158	-501	-6507	7110	-494
7426	412	-167	-149	-6507	7110	-494
7431	78	-805	-1150	-6507	7110	-494
7436	-1007	812	-2631	-6507	7110	-494
7441	-241	499	-1588	-6507	7110	-494
7446	1160	-13	-997	-5226	-1314	4887
7451	-1845	-4754	-2262	-5226	-1314	4887
7456	-5173	-8487	-5672	-5226	-1314	4887
7461	5034	-5203	-6138	-5226	-1314	4887
7466	3622	-3684	-6575	-5226	-1314	4887
7471	1226	-1870	-5717	-5226	-1314	4887
7476	1598	727	-3693	471	2373	-913
7481	475	2853	-1013	471	2373	-913
7486	398	3550	312	471	2373	-913
7491	247	2949	165	471	2373	-913
7496	-20	2224	-659	471	2373	-913
7501	-31	1564	-1610	471	2373	-913
7506	201	1212	-1906	-6437	795	-1826
7511	396	952	-1840	-6437	795	-1826
7516	409	647	-1536	-6437	795	-1826
7521	263	529	-1538	-6437	795	-1826
7526	420	239	-1525	-6437	795	-1826
7531	471	-104	-1409	-6437	795	-1826
7536	646	-63	-1293	-2938	1841	93
7541	870	-78	-1247	-2938	1841	93
7546	909	-113	-1122	-2938	1841	93
7551	716	-70	-583	-2938	1841	93
7556	398	63	39	-2938	1841	93
7561	512	-9	372	-2938	1841	93
7566	736	11	639	-5645	3984	4996
7571	998	-29	799	-5645	3984	4996
7576	1003	47	619	-5645	3984	4996
7581	1349	129	14	-5645	3984	4996
7586	1803	-90	-940	-5645	3984	4996
7591	2416	-257	-1878	-5645	3984	4996
7596	2778	-151	-2940	-5645	3984	4996
7601	2624	178	-3558	-3053	841	5422
7606	2352	1119	-3612	-3053	841	5422
7611	2334	2261	-3154	-3053	841	5422
7616	2524	3049	-2649	-3053	841	5422
7621	2954	4233	-2342	-3053	841	5422
7626	3717	6240	-2056	-3053	841	5422
7631	3946	8465	-1824	-137	243	-2368
7636	2958	9151	-1886	-137	243	-2368
7641	1811	7857	-2337	-137	243	-2368
7646	2262	6771	-2920	-137	243	-2368
7651	2410	6021	-3413	-137	243	-2368
7656	2404	5777	-3678	-137	243	-2368
7661	2437	5583	-4016	-2365	-1973	-7526
7666	2550	5582	-4092	-2365	-1973	-7526
7671	2759	6073	-3816	-2365	-1973	-7526
7676	3071	6663	-3484	-2365	-1973	-7526
7681	3545	7079	-3326	-2365	-1973	-7526
7686	4061	7656	-3515	-2365	-1973	-7526
7691	4446	8027	-4118	-1447	-5784	-12679
7696	4861	7796	-4668	-1447	-5784	-12679
7701	5300	6804	-4636	-1447	-5784	-12679
7706	5690	4976	-3741	-1447	-5784	-12679
7711	5874	3211	-2584	-1447	-5784	-12679
7716	5778	1833	-1655	-1447	-5784	-12679
7721	4561	645	-784	-5613	-2776	-15158
7726	4553	-53	-609	-5613	-2776	-15158
7731	5138	-29	-417	-5613	-2776	-15158
7736	3855	-442	-44	-5613	-2776	-15158
7741	3153	-237	-71	-5613	-2776	-15158
7746	2867	-133	-125	-5613	-2776	-15158
7751	2832	-112	-135	-5613	-2776	-15158
7756	2825	-100	-142	-5548	2720	-15055
7761	2816	-81	-157	-5548	2720	-15055
7766	2810	-76	-154	-5548	2720	-15055
7771	2805	-67	-157	-5548	2720	-15055
7776	2800	-54	-163	-5548	2720	-15055
7781	2795	-49	-160	-5548	2720	-15055
7786	2790	-43	-144	-4157	7234	-13496
7791	2788	-29	-150	-4157	7234	-13496
7796	2798	-20	-159	-4157	7234	-13496
7801	2796	-24	-164	-4157	7234	-13496
7806	2790	-17	-142	-4157	7234	-13496
7811	2798	-6	-156	-4157	7234	-13496
7816	2796	5	-145	-2112	9858	-11809
7821	2801	2	-154	-2112	9858	-11809
7826	2798	9	-147	-2112	9858	-11809
7831	2814	9	-152	-2112	9858	-11809
7836	2814	13	-142	-2112	9858	-11809
7841	2816	26	-146	-2112	9858	-11809
7846	2819	22	-137	102	10601	-11101
7851	2822	20	-143	102	10601	-11101
7856	2825	14	-145	102	10601	-11101
7861	2837	24	-143	102	10601	-11101
7866	2833	15	-129	102	10601	-11101
7871	2832	13	-118	102	10601	-11101
7876	2840	12	-107	2210	9749	-11796
7881	2844	12	-105	2210	9749	-11796
7886	2839	4	-109	2210	9749	-11796
7891	2849	4	-92	2210	9749	-11796
7896	2845	-5	-105	2210	9749	-11796
7901	2837	-3	-112	2210	9749	-11796
7906	2849	-4	-100	2210	9749	-11796
7911	2834	-2	-102	-8744	-1813	8873
7916	2847	-15	-108	-8744	-1813	8873
7921	2833	-15	-94	-8744	-1813	8873
7926	2824	-26	-105	-8744	-1813	8873
7931	2821	-32	-100	-8744	-1813	8873
7936	-6381	-459	-2236	-8744	-1813	8873
7941	699	197	254	-251	-5748	1345
7946	329	1819	975	-251	-5748	1345
7951	1016	651	442	-251	-5748	1345
7956	852	2640	1328	-251	-5748	1345
7961	1583	2805	1794	-251	-5748	1345
7966	145	5636	1279	-251	-5748	1345
7971	-123	6967	1587	-3831	530	-938
7976	1697	4338	1922	-3831	530	-938
7981	2071	2802	2981	-3831	530	-938
7986	833	825	3723	-3831	530	-938
7991	399	-809	3371	-3831	530	-938
7996	118	-1463	2305	-3831	530	-938
8001	-634	-1714	871	-5415	-2832	1835
8006	-401	-1606	-104	-5415	-2832	1835
8011	-55	-1522	-1016	-5415	-2832	1835
8016	93	-1526	-1499	-5415	-2832	1835
8021	32	-1397	-1392	-5415	-2832	1835
8026	476	-1005	-857	-5415	-2832	1835
8031	1065	-477	-219	-748	-5454	-1764
8036	1103	-37	481	-748	-5454	-1764
8041	1084	321	893	-748	-5454	-1764
8046	999	644	839	-748	-5454	-1764
8051	1088	622	479	-748	-5454	-1764
8056	1533	299	44	-748	-5454	-1764
8061	1824	-86	49	-748	-5454	-1764
8066	1944	-261	464	-3667	-3975	-2028
8071	2133	-174	1284	-3667	-3975	-2028
8076	2252	-417	2498	-3667	-3975	-2028
8081	2458	-1603	3870	-3667	-3975	-2028
8086	2966	-2820	4589	-3667	-3975	-2028
8091	3734	-2887	4586	-3667	-3975	-2028
8096	4304	-2535	4637	-1697	443	231
8101	4200	-2696	5235	-1697	443	231
8106	2786	-2635	5608	-1697	443	231
8111	2550	-2591	5643	-1697	443	231
8116	2425	-2716	5604	-1697	443	231
8121	2352	-2793	4991	-1697	443	231
8126	2391	-2758	4327	466	2310	2179
8131	2334	-2726	4110	466	2310	2179
8136	2294	-2913	4272	466	2310	2179
8141	2346	-3222	4614	466	2310	2179
8146	2233	-3824	5188	466	2310	2179
8151	2340	-4360	5622	466	2310	2179
8156	2464	-4519	5777	26	8364	5262
8161	2792	-4480	5804	26	8364	5262
8166	3374	-4189	6096	26	8364	5262
8171	3711	-3750	6574	26	8364	5262
8176	4233	-3336	6758	26	8364	5262
8181	4705	-2842	6354	26	8364	5262
8186	5103	-2225	5272	-5327	13191	7007
8191	5049	-1750	4066	-5327	13191	7007
8196	4171	-1225	3278	-5327	13191	7007
8201	4504	-1209	2956	-5327	13191	7007
8206	4639	-1269	2937	-5327	13191	7007
8211	4718	-1249	2332	-5327	13191	7007
8216	5096	-1093	1129	-5327	13191	7007
8221	4018	-252	-202	-9742	7896	13634
8226	3570	-118	-416	-9742	7896	13634
8231	3114	-66	-155	-9742	7896	13634
8236	2972	-24	-22	-9742	7896	13634
8241	2965	-34	-15	-9742	7896	13634
8246	2968	-46	0	-9742	7896	13634
8251	2974	-58	-2	-10711	-1807	15427
8256	2982	-77	-5	-10711	-1807	15427
8261	3001	-89	-17	-10711	-1807	15427
8266	3002	-90	-18	-10711	-1807	15427
8271	3007	-103	-30	-10711	-1807	15427
8276	3028	-99	-30	-10711	-1807	15427
8281	3045	-98	-40	-9094	-10354	11639
8286	3048	-93	-36	-9094	-10354	11639
8291	3059	-84	-33	-9094	-10354	11639
8296	3071	-87	-41	-9094	-10354	11639
8301	3082	-81	-36	-9094	-10354	11639
8306	3082	-82	-57	-9094	-10354	11639
8311	3088	-66	-31	-6923	-14567	5695
8316	3074	-72	-50	-6923	-14567	5695
8321	3079	-67	-59	-6923	-14567	5695
8326	3086	-59	-35	-6923	-14567	5695
8331	3067	-52	-33	-6923	-14567	5695
8336	3069	-57	-36	-6923	-14567	5695
8341	3062	-60	-43	-6092	-15615	-330
8346	3061	-57	-32	-6092	-15615	-330
8351	3055	-72	-39	-6092	-15615	-330
8356	3060	-64	-34	-6092	-15615	-330
8361	3045	-69	-41	-6092	-15615	-330
8366	3035	-72	-46	-6092	-15615	-330
8371	3024	-69	-38	-6092	-15615	-330
8376	3017	-77	-51	-6699	-14376	-5747
8381	3012	-88	-45	-6699	-14376	-5747
8386	2997	-92	-32	-6699	-14376	-5747
8391	2986	-88	-43	-6699	-14376	-5747
8396	2968	-113	-50	-6699	-14376	-5747
8401	2951	-112	-52	-6699	-14376	-5747
8406	2946	-130	-62	-2964	10065	3597
8411	2920	-139	-59	-2964	10065	3597
8416	2901	-142	-71	-2964	10065	3597
8421	-19221	-8258	14236	-2964	10065	3597
8426	445	-37	138	-2964	10065	3597
8431	1141	105	-179	-2964	10065	3597
8436	-129	3576	-3419	-1326	-348	3803
8441	815	1358	-968	-1326	-348	3803
8446	805	1394	-2493	-1326	-348	3803
8451	951	331	-4635	-1326	-348	3803
8456	1229	-746	-9227	-1326	-348	3803
8461	2724	-1403	-8523	-1326	-348	3803
8466	2195	160	-7097	-4635	-3287	-232
8471	1353	2203	-5329	-4635	-3287	-232
8476	601	3065	-3039	-4635	-3287	-232
8481	-101	2255	-655	-4635	-3287	-232
8486	-760	859	603	-4635	-3287	-232
8491	-577	-31	907	-4635	-3287	-232
8496	-435	-110	1144	-2116	3146	3765
8501	-59	-415	1171	-2116	3146	3765
8506	501	-844	1902	-2116	3146	3765
8511	935	-963	2500	-2116	3146	3765
8516	967	-931	2497	-2116	3146	3765
8521	816	-860	2276	-2116	3146	3765
8526	700	-599	1811	-2116	3146	3765
8531	824	-204	1099	-362	4121	5362
8536	853	306	569	-362	4121	5362
8541	1031	790	270	-362	4121	5362
8546	1432	1243	78	-362	4121	5362
8551	1852	1644	-2	-362	4121	5362
8556	2473	1957	-275	-362	4121	5362
8561	2818	2172	-827	-470	3054	4480
8566	2804	2403	-1456	-470	3054	4480
8571	2781	2709	-2010	-470	3054	4480
8576	2942	2745	-2115	-470	3054	4480
8581	3230	2745	-2157	-470	3054	4480
8586	3407	3040	-2223	-470	3054	4480
8591	3569	3582	-2215	-936	-440	-453
8596	3713	4577	-2726	-936	-440	-453
8601	3926	5492	-3175	-936	-440	-453
8606	3940	6477	-3843	-936	-440	-453
8611	3507	6957	-4168	-936	-440	-453
8616	2724	7032	-3911	-936	-440	-453
8621	2865	6523	-3079	-842	-520	-4410
8626	2820	5874	-2438	-842	-520	-4410
8631	2700	5588	-1960	-842	-520	-4410
8636	2701	5777	-1652	-842	-520	-4410
8641	2835	6293	-1529	-842	-520	-4410
8646	3090	6726	-1590	-842	-520	-4410
8651	3491	7065	-1750	2725	-3850	-8821
8656	3899	7210	-2155	2725	-3850	-8821
8661	4282	7286	-2731	2725	-3850	-8821
8666	4511	6792	-3474	2725	-3850	-8821
8671	4381	5610	-3608	2725	-3850	-8821
8676	4393	4480	-3148	2725	-3850	-8821
8681	4494	3681	-2378	2725	-3850	-8821
8686	4538	2866	-1646	-1142	-7521	-10879
8691	4405	2290	-1454	-1142	-7521	-10879
8696	4264	2093	-1438	-1142	-7521	-10879
8701	4223	1663	-1281	-1142	-7521	-10879
8706	3964	1014	-1120	-1142	-7521	-10879
8711	3986	397	-744	-1142	-7521	-10879
8716	2909	-232	17	-3287	-6323	-12729
8721	2564	-153	-35	-3287	-6323	-12729
8726	2435	-101	-74	-3287	-6323	-12729
8731	2424	-105	-101	-3287	-6323	-12729
8736	2420	-101	-100	-3287	-6323	-12729
8741	2411	-103	-101	-3287	-6323	-12729
8746	2405	-101	-112	-4416	-3043	-13663
8751	2398	-93	-112	-4416	-3043	-13663
8756	2390	-93	-133	-4416	-3043	-13663
8761	2385	-83	-118	-4416	-3043	-13663
8766	2381	-92	-129	-4416	-3043	-13663
8771	2370	-82	-126	-4416	-3043	-13663
8776	2376	-87	-127	-4678	1089	-14060
8781	2364	-81	-139	-4678	1089	-14060
8786	2357	-81	-135	-4678	1089	-14060
8791	2346	-69	-139	-4678	1089	-14060
8796	2351	-75	-166	-4678	1089	-14060
8801	2348	-63	-146	-4678	1089	-14060
8806	2344	-63	-143	-3942	5000	-13268
8811	2348	-55	-161	-3942	5000	-13268
8816	2336	-39	-149	-3942	5000	-13268
8821	2329	-43	-151	-3942	5000	-13268
8826	2334	-34	-167	-3942	5000	-13268
8831	2339	-27	-166	-3942	5000	-13268
8836	2346	-25	-146	-3942	5000	-13268
8841	2340	-17	-159	-2483	7534	-11939
8846	2341	-11	-165	-2483	7534	-11939
8851	2337	-8	-154	-2483	7534	-11939
8856	2347	7	-126	-2483	7534	-11939
8861	2354	7	-137	-2483	7534	-11939
8866	2357	4	-124	-2483	7534	-11939
8871	2343	14	-117	-783	8639	-11119
8876	2364	12	-134	-783	8639	-11119
8881	2365	13	-128	-783	8639	-11119
8886	2372	17	-132	-783	8639	-11119
8891	2365	16	-128	-783	8639	-11119
8896	2371	19	-108	-783	8639	-11119
8901	2366	10	-109	-22039	-5109	5977
8906	2367	24	-107	-22039	-5109	5977
8911	2368	12	-103	-22039	-5109	5977
8916	2357	9	-108	-22039	-5109	5977
8921	2350	7	-100	-22039	-5109	5977
8926	-5451	5291	3265	-22039	-5109	5977
8931	632	-160	364	4890	-4297	1177
8936	1874	0	2179	4890	-4297	1177
8941	1376	-251	1707	4890	-4297	1177
8946	826	-3	1900	4890	-4297	1177
8951	769	116	2624	4890	-4297	1177
8956	1618	81	4239	4890	-4297	1177
8961	1280	782	4870	-2858	1968	-71
8966	2042	1266	5852	-2858	1968	-71
8971	1513	1218	6974	-2858	1968	-71
8976	1432	950	5894	-2858	1968	-71
8981	1267	478	4268	-2858	1968	-71
8986	1167	154	3184	-2858	1968	-71
8991	1132	-130	2400	-2858	1968	-71
8996	1073	-244	1990	-802	-362	241
9001	958	-365	1719	-802	-362	241
9006	691	-427	1577	-802	-362	241
9011	557	-467	1377	-802	-362	241
9016	545	-452	1287	-802	-362	241
9021	532	-333	1265	-802	-362	241
9026	499	-216	1189	-3573	-533	-607
9031	397	-129	1036	-3573	-533	-607
9036	591	-47	1032	-3573	-533	-607
9041	541	-30	1106	-3573	-533	-607
9046	431	3	1030	-3573	-533	-607
9051	427	105	748	-3573	-533	-607
9056	448	170	518	-4746	-948	-2008
9061	427	237	395	-4746	-948	-2008
9066	669	320	386	-4746	-948	-2008
9071	943	431	376	-4746	-948	-2008
9076	895	363	401	-4746	-948	-2008
9081	803	204	381	-4746	-948	-2008
9086	703	37	274	-462	-3071	-4372
9091	686	-262	156	-462	-3071	-4372
9096	1330	-306	72	-462	-3071	-4372
9101	1737	-155	64	-462	-3071	-4372
9106	1956	83	180	-462	-3071	-4372
9111	1934	217	588	-462	-3071	-4372
9116	1776	-244	930	-413	-652	616
9121	1767	-1505	1659	-413	-652	616
9126	2143	-3387	2528	-413	-652	616
9131	2507	-5132	3300	-413	-652	616
9136	2399	-6364	4266	-413	-652	616
9141	2036	-6136	5259	-413	-652	616
9146	2245	-5490	5868	-413	-652	616
9151	2331	-5161	5996	-7	3146	4137
9156	2417	-5108	5982	-7	3146	4137
9161	2569	-5095	5794	-7	3146	4137
9166	2771	-5196	5678	-7	3146	4137
9171	2961	-5447	5567	-7	3146	4137
9176	3152	-5888	5808	-7	3146	4137
9181	3375	-6145	6340	251	10256	8179
9186	3502	-6203	6946	251	10256	8179
9191	3952	-5816	7067	251	10256	8179
9196	4632	-4943	6518	251	10256	8179
9201	4984	-3799	5461	251	10256	8179
9206	5335	-2464	4006	251	10256	8179
9211	5621	-1669	2773	-3926	11310	11350
9216	5643	-1043	1596	-3926	11310	11350
9221	5250	-495	666	-3926	11310	11350
9226	4927	-103	66	-3926	11310	11350
9231	3441	0	-206	-3926	11310	11350
9236	3122	-65	-107	-3926	11310	11350
9241	3059	-54	-62	-6218	7186	14069
9246	3039	-48	-46	-6218	7186	14069
9251	3048	-51	-43	-6218	7186	14069
9256	3034	-72	-41	-6218	7186	14069
9261	3031	-67	-43	-6218	7186	14069
9266	3036	-71	-40	-6218	7186	14069
9271	3034	-71	-39	-7385	555	15821
9276	3038	-76	-56	-7385	555	15821
9281	3029	-83	-36	-7385	555	15821
9286	3052	-77	-45	-7385	555	15821
9291	3042	-77	-51	-7385	555	15821
9296	3050	-76	-62	-7385	555	15821
9301	3044	-73	-57	-7385	555	15821
9306	3061	-73	-64	-6621	-6125	14583
9311	3064	-73	-61	-6621	-6125	14583
9316	3072	-72	-63	-6621	-6125	14583
9321	3082	-68	-73	-6621	-6125	14583
9326	3074	-65	-82	-6621	-6125	14583
9331	3079	-50	-78	-6621	-6125	14583
9336	3079	-53	-75	-4564	-10568	11703
9341	3084	-53	-80	-4564	-10568	11703
9346	3079	-39	-95	-4564	-10568	11703
9351	3079	-38	-68	-4564	-10568	11703
9356	3073	-37	-86	-4564	-10568	11703
9361	3071	-38	-69	-4564	-10568	11703
9366	3067	-29	-94	-2300	-12595	9461
9371	3060	-31	-103	-2300	-12595	9461
9376	3054	-11	-103	-2300	-12595	9461
9381	3050	-9	-102	-2300	-12595	9461
9386	3035	-17	-105	-2300	-12595	9461
9391	3034	-6	-109	-2300	-12595	9461
9396	3026	-1	-103	-243	-13005	8485
9401	3017	1	-105	-243	-13005	8485
9406	3003	12	-113	-243	-13005	8485
9411	2983	14	-120	-243	-13005	8485
9416	2972	23	-98	-243	-13005	8485
9421	2957	24	-106	-243	-13005	8485
9426	-4257	3566	4954	4054	5011	-1770
9431	-3569	-1893	-2803	4054	5011	-1770
9436	-200	-508	-669	4054	5011	-1770
9441	-206	77	-762	4054	5011	-1770
9446	-995	379	-1471	4054	5011	-1770
9451	-4367	-347	-3186	4054	5011	-1770
9456	-3888	-1485	-4959	4054	5011	-1770
9461	-447	-1878	-4992	-2660	388	-452
9466	158	-2242	-4935	-2660	388	-452
9471	-1612	-1115	-4116	-2660	388	-452
9476	-1201	541	-2914	-2660	388	-452
9481	-1103	1583	-1943	-2660	388	-452
9486	-1324	1724	-1595	-2660	388	-452
9491	-1357	1265	-1917	-437	403	-571
9496	-1319	725	-2498	-437	403	-571
9501	-1325	455	-2957	-437	403	-571
9506	-1346	575	-2786	-437	403	-571
9511	-1280	698	-2225	-437	403	-571
9516	-1132	703	-2012	-437	403	-571
9521	-1001	666	-2219	-2980	-1385	-131
9526	-893	495	-2678	-2980	-1385	-131
9531	-748	227	-3042	-2980	-1385	-131
9536	-591	-17	-3306	-2980	-1385	-131
9541	-471	-197	-3409	-2980	-1385	-131
9546	-436	-294	-3369	-2980	-1385	-131
9551	-408	-295	-3057	-2761	-1823	427
9556	-476	-140	-2532	-2761	-1823	427
9561	-445	-44	-1966	-2761	-1823	427
9566	-364	-13	-1632	-2761	-1823	427
9571	-334	-3	-1384	-2761	-1823	427
9576	-538	33	-957	-2761	-1823	427
9581	-546	98	-457	-4903	521	228
9586	-585	174	-208	-4903	521	228
9591	-380	262	-39	-4903	521	228
9596	-370	273	127	-4903	521	228
9601	-304	248	205	-4903	521	228
9606	-256	178	251	-4903	521	228
9611	-234	130	308	-4903	521	228
9616	-243	-39	584	-263	3002	3428
9621	-95	-275	508	-263	3002	3428
9626	8	-557	189	-263	3002	3428
9631	269	-595	45	-263	3002	3428
9636	524	-526	-99	-263	3002	3428
9641	647	-600	-326	-263	3002	3428
9646	637	-732	-389	-3345	2864	6319
9651	635	-681	-384	-3345	2864	6319
9656	638	-535	-414	-3345	2864	6319
9661	889	-267	-488	-3345	2864	6319
9666	1173	24	-541	-3345	2864	6319
9671	1761	324	-835	-3345	2864	6319
9676	2159	498	-784	2266	2452	4923
9681	2835	954	-996	2266	2452	4923
9686	3379	1816	-1443	2266	2452	4923
9691	3390	3307	-2056	2266	2452	4923
9696	3014	5319	-2847	2266	2452	4923
9701	2647	7089	-3522	2266	2452	4923
9706	2564	8379	-4082	-156	-1679	-3809
9711	2792	9250	-4671	-156	-1679	-3809
9716	2936	9799	-5380	-156	-1679	-3809
9721	3004	9818	-5837	-156	-1679	-3809
9726	3022	9019	-6059	-156	-1679	-3809
9731	3039	7749	-6008	-156	-1679	-3809
9736	2944	6725	-5615	536	-5832	-7218
9741	2842	6046	-5109	536	-5832	-7218
9746	2833	6053	-4734	536	-5832	-7218
9751	3031	6432	-4331	536	-5832	-7218
9756	3102	6585	-4255	536	-5832	-7218
9761	3326	5976	-4261	536	-5832	-7218
9766	4071	5258	-4052	536	-5832	-7218
9771	4407	4531	-4040	-10483	-5605	-12465
9776	4214	3382	-3441	-10483	-5605	-12465
9781	4548	2457	-2376	-10483	-5605	-12465
9786	3284	1142	-1176	-10483	-5605	-12465
9791	2806	187	-631	-10483	-5605	-12465
9796	2450	-230	-68	-10483	-5605	-12465
9801	2308	-153	-124	-10754	3756	-13360
9806	2291	-144	-117	-10754	3756	-13360
9811	2270	-119	-138	-10754	3756	-13360
9816	2272	-96	-111	-10754	3756	-13360
9821	2244	-68	-151	-10754	3756	-13360
9826	2218	-44	-174	-10754	3756	-13360
9831	2209	-28	-158	-9092	11011	-8847
9836	2218	-6	-152	-9092	11011	-8847
9841	2213	13	-136	-9092	11011	-8847
9846	2217	36	-152	-9092	11011	-8847
9851	2220	43	-121	-9092	11011	-8847
9856	2228	62	-122	-9092	11011	-8847
9861	2231	65	-110	-7841	13881	-2304
9866	2228	64	-121	-7841	13881	-2304
9871	2243	77	-103	-7841	13881	-2304
9876	2241	74	-88	-7841	13881	-2304
9881	2251	72	-94	-7841	13881	-2304
9886	2257	74	-91	-7841	13881	-2304
9891	2260	68	-91	-8136	13242	4392
9896	2261	70	-73	-8136	13242	4392
9901	2271	74	-56	-8136	13242	4392
9906	2266	55	-52	-8136	13242	4392
9911	2265	49	-67	-8136	13242	4392
9916	2265	46	-37	-8136	13242	4392
9921	2271	37	-40	-8136	13242	4392
9926	2274	36	-25	-9810	9053	10499
9931	2266	23	-27	-9810	9053	10499
9936	2272	10	-18	-9810	9053	10499
9941	2273	-4	-18	-9810	9053	10499
9946	2277	-11	-19	-9810	9053	10499
9951	2278	-23	-11	-9810	9053	10499
9956	2290	-30	-16	-11033	911	13578
9961	2286	-52	0	-11033	911	13578
9966	2300	-58	-6	-11033	911	13578
9971	2307	-66	-24	-11033	911	13578
9976	2310	-76	-16	-11033	911	13578
9981	2322	-82	-26	-11033	911	13578
9986	2334	-91	-32	-32768	1711	-8487
9991	2340	-94	-48	-32768	1711	-8487
9996	2354	-90	-52	-32768	1711	-8487
10001	2356	-95	-63	-32768	1711	-8487
10006	2362	-93	-60	-32768	1711	-8487
10011	-5566	-457	342	-32768	1711	-8487
10016	-1157	-1806	-4718	14777	-654	-1261
10021	649	2151	-3717	14777	-654	-1261
10026	591	2496	-3090	14777	-654	-1261
10031	-1492	1074	-2270	14777	-654	-1261
10036	-2256	2088	-3219	14777	-654	-1261
10041	465	2604	-3074	14777	-654	-1261
10046	1753	554	-2807	-2895	-75	1769
10051	445	-1793	-3809	-2895	-75	1769
10056	-1002	-2763	-2638	-2895	-75	1769
10061	-21	-1763	-2772	-2895	-75	1769
10066	854	-1046	-3362	-2895	-75	1769
10071	653	-444	-2752	-2895	-75	1769
10076	223	12	-2061	-2895	-75	1769
10081	212	596	-1494	-3138	1474	-259
10086	168	936	-939	-3138	1474	-259
10091	149	1195	-435	-3138	1474	-259
10096	383	1270	-277	-3138	1474	-259
10101	423	1120	-7	-3138	1474	-259
10106	418	591	91	-3138	1474	-259
10111	569	3	59	-6086	1307	2385
10116	804	-555	-125	-6086	1307	2385
10121	811	-878	-314	-6086	1307	2385
10126	653	-942	-581	-6086	1307	2385
10131	732	-686	-814	-6086	1307	2385
10136	913	-355	-839	-6086	1307	2385
10141	1065	-221	-651	-2278	3539	6576
10146	1560	-325	-527	-2278	3539	6576
10151	2490	-347	-442	-2278	3539	6576
10156	3016	-386	-337	-2278	3539	6576
10161	2653	-151	-765	-2278	3539	6576
10166	2311	300	-1264	-2278	3539	6576
10171	2295	996	-1571	396	2279	2154
10176	2454	1913	-1717	396	2279	2154
10181	2927	3317	-1725	396	2279	2154
10186	3940	5725	-2498	396	2279	2154
10191	4696	7006	-2570	396	2279	2154
10196	3535	6863	-3553	396	2279	2154
10201	2459	5795	-4427	-176	-993	-1284
10206	2598	5327	-5095	-176	-993	-1284
10211	2486	5418	-5045	-176	-993	-1284
10216	2296	5889	-4517	-176	-993	-1284
10221	2253	5814	-3873	-176	-993	-1284
10226	2171	5370	-3222	-176	-993	-1284
10231	2230	5226	-2804	-176	-993	-1284
10236	2357	5338	-2751	-191	-2566	-4965
10241	2607	5511	-3067	-191	-2566	-4965
10246	2711	5632	-3638	-191	-2566	-4965
10251	2804	5647	-3921	-191	-2566	-4965
10256	3026	5518	-3883	-191	-2566	-4965
10261	3140	5201	-3767	-191	-2566	-4965
10266	3148	4761	-3514	-1038	-6299	-8825
10271	3282	4363	-3373	-1038	-6299	-8825
10276	3331	4081	-3209	-1038	-6299	-8825
10281	3777	4019	-3241	-1038	-6299	-8825
10286	4204	3957	-3374	-1038	-6299	-8825
10291	4231	3426	-3367	-1038	-6299	-8825
10296	4236	2816	-3419	-4814	-8256	-15540
10301	4885	2503	-3523	-4814	-8256	-15540
10306	5023	1702	-2677	-4814	-8256	-15540
10311	4568	503	-1218	-4814	-8256	-15540
10316	4113	-199	-22	-4814	-8256	-15540
10321	3820	-175	-35	-4814	-8256	-15540
10326	3700	-178	-79	-6403	-2180	-17312
10331	3687	-167	-85	-6403	-2180	-17312
10336	3671	-154	-102	-6403	-2180	-17312
10341	3659	-148	-117	-6403	-2180	-17312
10346	3644	-146	-114	-6403	-2180	-17312
10351	3639	-137	-118	-6403	-2180	-17312
10356	3627	-127	-129	-5831	5043	-16753
10361	3618	-112	-149	-5831	5043	-16753
10366	3596	-103	-150	-5831	5043	-16753
10371	3603	-91	-169	-5831	5043	-16753
10376	3599	-77	-158	-5831	5043	-16753
10381	3588	-61	-153	-5831	5043	-16753
10386	3591	-53	-165	-5831	5043	-16753
10391	3580	-39	-159	-3754	9702	-14372
10396	3584	-30	-174	-3754	9702	-14372
10401	3587	-18	-161	-3754	9702	-14372
10406	3591	-15	-164	-3754	9702	-14372
10411	3599	0	-168	-3754	9702	-14372
10416	3610	12	-161	-3754	9702	-14372
10421	3609	7	-151	-995	11768	-12762
10426	3621	21	-130	-995	11768	-12762
10431	3623	15	-143	-995	11768	-12762
10436	3633	16	-144	-995	11768	-12762
10441	3640	22	-121	-995	11768	-12762
10446	3650	16	-113	-995	11768	-12762
10451	3645	21	-125	1699	11457	-13012
10456	3645	18	-115	1699	11457	-13012
10461	3648	12	-98	1699	11457	-13012
10466	3655	12	-101	1699	11457	-13012
10471	3649	0	-103	1699	11457	-13012
10476	3652	2	-88	1699	11457	-13012
10481	3646	-17	-81	-1360	-2934	6714
10486	3634	-21	-97	-1360	-2934	6714
10491	3632	-22	-87	-1360	-2934	6714
10496	-6405	-10548	-4147	-1360	-2934	6714
10501	-2836	-161	-132	-1360	-2934	6714
10506	347	-9	-174	-1360	-2934	6714
10511	-307	3139	1545	-2203	-5591	-1805
10516	-434	703	-2	-2203	-5591	-1805
10521	305	1472	511	-2203	-5591	-1805
10526	1729	2581	634	-2203	-5591	-1805
10531	1124	5243	-859	-2203	-5591	-1805
10536	492	7798	966	-2203	-5591	-1805
10541	873	7100	1747	-2203	-5591	-1805
10546	1338	5087	2895	-3650	1293	175
10551	962	2192	4544	-3650	1293	175
10556	507	-1033	5395	-3650	1293	175
10561	-223	-3174	4084	-3650	1293	175
10566	-742	-3107	2474	-3650	1293	175
10571	-963	-2701	786	-3650	1293	175
10576	-763	-2101	-706	-3163	-3521	1924
10581	-416	-1621	-1784	-3163	-3521	1924
10586	-258	-1295	-1999	-3163	-3521	1924
10591	245	-1040	-2036	-3163	-3521	1924
10596	562	-750	-1774	-3163	-3521	1924
10601	712	-367	-1188	-3163	-3521	1924
10606	965	-235	-533	-3374	-5602	869
10611	1042	-340	-175	-3374	-5602	869
10616	1300	-528	-197	-3374	-5602	869
10621	1402	-517	-445	-3374	-5602	869
10626	1584	-220	-324	-3374	-5602	869
10631	1983	16	-191	-3374	-5602	869
10636	2373	142	-139	-1713	-6745	-2346
10641	3181	323	190	-1713	-6745	-2346
10646	3606	550	703	-1713	-6745	-2346
10651	3503	590	1574	-1713	-6745	-2346
10656	3273	447	2552	-1713	-6745	-2346
10661	3138	-81	3551	-1713	-6745	-2346
10666	3575	-1286	4165	361	-1583	440
10671	4206	-2389	4597	361	-1583	440
10676	4338	-2925	5224	361	-1583	440
10681	4242	-2590	5787	361	-1583	440
10686	3756	-1526	6220	361	-1583	440
10691	3697	-735	6736	361	-1583	440
10696	3476	-206	7201	361	-1583	440
10701	2993	-94	6976	50	2337	92
10706	3045	-440	6444	50	2337	92
10711	3046	-813	6022	50	2337	92
10716	2954	-1018	5606	50	2337	92
10721	2905	-1181	5392	50	2337	92
10726	2937	-1354	5332	50	2337	92
10731	3020	-1669	5398	872	7746	1804
10736	3175	-1971	5680	872	7746	1804
10741	3497	-2120	5976	872	7746	1804
10746	3834	-2067	6212	872	7746	1804
10751	3975	-1866	6778	872	7746	1804
10756	4179	-1329	6930	872	7746	1804
10761	4767	-798	6340	-1557	13061	2126
10766	5139	-391	5638	-1557	13061	2126
10771	5590	-222	4535	-1557	13061	2126
10776	5954	-156	3136	-1557	13061	2126
10781	5680	-169	2066	-1557	13061	2126
10786	5328	-177	1263	-1557	13061	2126
10791	4925	-101	806	-1568	15796	5821
10796	5160	-250	343	-1568	15796	5821
10801	4594	-270	-245	-1568	15796	5821
10806	3996	-252	-388	-1568	15796	5821
10811	3619	-124	-203	-1568	15796	5821
10816	3577	-20	-29	-1568	15796	5821
10821	3466	-32	-27	-3676	14663	8240
10826	3359	-26	-44	-3676	14663	8240
10831	3355	-22	-50	-3676	14663	8240
10836	3356	-25	-24	-3676	14663	8240
10841	3336	-27	-27	-3676	14663	8240
10846	3338	-23	-32	-3676	14663	8240
10851	3322	-33	-30	-3676	14663	8240
10856	3314	-28	-19	-6120	11686	11857
10861	3312	-35	-13	-6120	11686	11857
10866	3313	-39	-21	-6120	11686	11857
10871	3303	-32	-31	-6120	11686	11857
10876	3294	-44	-16	-6120	11686	11857
10881	3293	-48	-24	-6120	11686	11857
10886	3286	-49	-29	-8368	5312	15508
10891	3288	-61	-15	-8368	5312	15508
10896	3286	-58	-24	-8368	5312	15508
10901	3292	-74	-14	-8368	5312	15508
10906	3298	-74	-20	-8368	5312	15508
10911	3291	-71	-31	-8368	5312	15508
10916	3308	-92	-53	-8749	-3371	15988
10921	3305	-93	-36	-8749	-3371	15988
10926	3325	-91	-35	-8749	-3371	15988
10931	3327	-99	-36	-8749	-3371	15988
10936	3329	-100	-50	-8749	-3371	15988
10941	3337	-100	-48	-8749	-3371	15988
10946	3347	-97	-65	-6969	-10424	12518
10951	3346	-101	-72	-6969	-10424	12518
10956	3349	-95	-69	-6969	-10424	12518
10961	3365	-82	-78	-6969	-10424	12518
10966	3360	-76	-73	-6969	-10424	12518
10971	3351	-62	-98	-6969	-10424	12518
10976	3341	-61	-109	-2243	10098	1296
10981	3321	-55	-101	-2243	10098	1296
10986	-3403	1622	163	-2243	10098	1296
10991	30	-701	-125	-2243	10098	1296
10996	152	-223	-351	-2243	10098	1296
11001	1147	234	-1552	-2243	10098	1296
11006	1292	268	-1844	-2243	10098	1296
11011	2110	683	-3209	-4718	-325	981
11016	1030	23	-4110	-4718	-325	981
11021	1109	-1194	-5525	-4718	-325	981
11026	1273	-2236	-6095	-4718	-325	981
11031	1419	-1642	-6141	-4718	-325	981
11036	236	-271	-5858	-4718	-325	981
11041	338	729	-4818	-1704	-1187	-802
11046	541	1130	-3817	-1704	-1187	-802
11051	492	1371	-2443	-1704	-1187	-802
11056	504	1465	-1422	-1704	-1187	-802
11061	294	1168	-343	-1704	-1187	-802
11066	197	491	498	-1704	-1187	-802
11071	820	-389	130	-5555	975	242
11076	428	-282	-68	-5555	975	242
11081	49	-3	215	-5555	975	242
11086	476	-126	68	-5555	975	242
11091	557	-83	-107	-5555	975	242
11096	373	255	-235	-5555	975	242
11101	472	435	-251	1408	5766	1643
11106	669	487	-51	1408	5766	1643
11111	953	302	319	1408	5766	1643
11116	1137	45	666	1408	5766	1643
11121	1213	-177	804	1408	5766	1643
11126	1373	-274	663	1408	5766	1643
11131	1827	-294	379	2602	4926	2363
11136	2310	-308	-48	2602	4926	2363
11141	2854	-374	-529	2602	4926	2363
11146	4121	-88	-1635	2602	4926	2363
11151	4623	996	-2796	2602	4926	2363
11156	4350	2399	-4414	2602	4926	2363
11161	3755	3395	-5788	2602	4926	2363
11166	3537	3893	-6945	-1336	-2474	-1275
11171	3307	3944	-8115	-1336	-2474	-1275
11176	2944	3569	-8617	-1336	-2474	-1275
11181	2876	2999	-7675	-1336	-2474	-1275
11186	3195	2534	-5938	-1336	-2474	-1275
11191	3292	2250	-4355	-1336	-2474	-1275
11196	3283	2086	-3384	594	-4177	-1571
11201	3228	2096	-3090	594	-4177	-1571
11206	3249	2369	-3717	594	-4177	-1571
11211	3093	2701	-4977	594	-4177	-1571
11216	3161	3002	-5857	594	-4177	-1571
11221	3337	3304	-6151	594	-4177	-1571
11226	3584	3437	-6111	-1737	-10247	-4825
11231	3834	3382	-5859	-1737	-10247	-4825
11236	4177	3232	-5385	-1737	-10247	-4825
11241	4448	2873	-5093	-1737	-10247	-4825
11246	4725	2500	-5009	-1737	-10247	-4825
11251	5101	2005	-4643	-1737	-10247	-4825
11256	5362	1500	-4145	-2327	-12880	-8613
11261	5459	1076	-3502	-2327	-12880	-8613
11266	5443	658	-2198	-2327	-12880	-8613
11271	5087	292	-534	-2327	-12880	-8613
11276	3666	43	141	-2327	-12880	-8613
11281	3040	-44	59	-2327	-12880	-8613
11286	2880	-106	-22	-4541	-10667	-11000
11291	2884	-106	-32	-4541	-10667	-11000
11296	2874	-107	-39	-4541	-10667	-11000
11301	2864	-108	-47	-4541	-10667	-11000
11306	2855	-114	-57	-4541	-10667	-11000
11311	2852	-114	-58	-4541	-10667	-11000
11316	2841	-121	-61	-4541	-10667	-11000
11321	2827	-123	-87	-6413	-6494	-13757
11326	2822	-124	-74	-6413	-6494	-13757
11331	2811	-121	-79	-6413	-6494	-13757
11336	2796	-132	-86	-6413	-6494	-13757
11341	2791	-134	-91	-6413	-6494	-13757
11346	2773	-132	-113	-6413	-6494	-13757
11351	2767	-132	-120	-7319	-37	-15125
11356	2750	-122	-116	-7319	-37	-15125
11361	2740	-126	-124	-7319	-37	-15125
11366	2737	-107	-137	-7319	-37	-15125
11371	2724	-99	-131	-7319	-37	-15125
11376	2718	-85	-145	-7319	-37	-15125
11381	2702	-84	-157	-6371	6474	-13665
11386	2702	-74	-146	-6371	6474	-13665
11391	2695	-50	-170	-6371	6474	-13665
11396	2687	-41	-152	-6371	6474	-13665
11401	2694	-19	-159	-6371	6474	-13665
11406	2696	-10	-166	-6371	6474	-13665
11411	2701	-1	-162	-4422	10761	-10813
11416	2703	24	-160	-4422	10761	-10813
11421	2710	30	-159	-4422	10761	-10813
11426	2709	36	-141	-4422	10761	-10813
11431	2712	37	-133	-4422	10761	-10813
11436	2714	45	-124	-4422	10761	-10813
11441	2716	51	-118	-2515	12761	-8163
11446	2725	55	-113	-2515	12761	-8163
11451	2719	44	-110	-2515	12761	-8163
11456	2726	42	-93	-2515	12761	-8163
11461	2726	38	-99	-2515	12761	-8163
11466	2715	44	-101	-2515	12761	-8163
11471	2709	30	-79	-2515	12761	-8163
11476	2699	28	-72	5299	-9363	4366
11481	-5429	-5143	-5915	5299	-9363	4366
11486	-1420	-93	1170	5299	-9363	4366
11491	-13	-101	609	5299	-9363	4366
11496	51	1653	2303	5299	-9363	4366
11501	247	3011	1295	5299	-9363	4366
11506	-1160	5682	2976	-2967	1220	-2095
11511	1452	2207	302	-2967	1220	-2095
11516	3974	3250	3556	-2967	1220	-2095
11521	3599	3243	5460	-2967	1220	-2095
11526	708	1823	4968	-2967	1220	-2095
11531	-165	-635	4246	-2967	1220	-2095
11536	-167	-2721	2039	-2012	-4478	2507
11541	-260	-3571	-431	-2012	-4478	2507
11546	-216	-2775	-2247	-2012	-4478	2507
11551	81	-1367	-2520	-2012	-4478	2507
11556	543	-477	-1728	-2012	-4478	2507
11561	902	-385	-360	-2012	-4478	2507
11566	1066	-317	763	-5317	-3946	521
11571	1248	219	1425	-5317	-3946	521
11576	1105	717	1641	-5317	-3946	521
11581	1104	798	1416	-5317	-3946	521
11586	1275	750	929	-5317	-3946	521
11591	1251	421	510	-5317	-3946	521
11598	1839	223	444	-5022	-4221	-2463
11601	2098	121	749	-5022	-4221	-2463
11606	2613	-93	1248	-5022	-4221	-2463
11611	3060	-219	1592	-5022	-4221	-2463
11616	3347	-387	1883	-5022	-4221	-2463
11621	3245	-647	2209	-5022	-4221	-2463
11626	2931	-1000	2569	-5022	-4221	-2463
11631	2748	-1435	2910	-3079	-85	355
11636	2926	-1973	3256	-3079	-85	355
11641	3322	-3210	3754	-3079	-85	355
11646	2493	-3763	3631	-3079	-85	355
11651	1860	-2584	3283	-3079	-85	355
11656	2054	-2146	3198	-3079	-85	355
11661	2066	-1927	2929	-722	-192	-368
11666	1955	-1970	2647	-722	-192	-368
11671	1910	-2023	2548	-722	-192	-368
11676	1948	-2084	2587	-722	-192	-368
11681	2049	-2206	2750	-722	-192	-368
11686	2128	-2513	3120	-722	-192	-368
11691	2180	-2847	3409	-3307	2768	2834
11696	2179	-3218	3740	-3307	2768	2834
11701	2288	-3716	3968	-3307	2768	2834
11706	2321	-4132	4032	-3307	2768	2834
11711	2521	-4443	3819	-3307	2768	2834
11716	2881	-4486	3465	-3307	2768	2834
11721	3211	-4524	3229	-1510	3850	6984
11726	3626	-4514	3141	-1510	3850	6984
11731	4072	-4505	2991	-1510	3850	6984
11736	4456	-4670	2760	-1510	3850	6984
11741	4677	-4857	2800	-1510	3850	6984
11746	4445	-4627	3045	-1510	3850	6984
11751	4125	-4295	3258	-956	7465	10813
11756	4036	-4327	3170	-956	7465	10813
11761	4083	-4174	2847	-956	7465	10813
11766	4416	-3429	2495	-956	7465	10813
11771	4961	-2531	1998	-956	7465	10813
11776	5147	-1488	1445	-956	7465	10813
11781	4457	-870	1289	-956	7465	10813
11786	4383	-588	839	-4457	5960	13687
11791	3744	4	220	-4457	5960	13687
11796	3085	-18	-81	-4457	5960	13687
11801	2783	-49	-83	-4457	5960	13687
11806	2682	-53	-66	-4457	5960	13687
11811	2668	-47	-78	-4457	5960	13687
11816	2669	-53	-66	-5513	1538	14719
11821	2672	-50	-83	-5513	1538	14719
11826	2669	-65	-72	-5513	1538	14719
11831	2669	-73	-72	-5513	1538	14719
11836	2676	-62	-71	-5513	1538	14719
11841	2673	-55	-75	-5513	1538	14719
11846	2671	-56	-83	-5206	-3364	14280
11851	2673	-64	-79	-5206	-3364	14280
11856	2685	-62	-80	-5206	-3364	14280
11861	2686	-59	-94	-5206	-3364	14280
11866	2680	-51	-94	-5206	-3364	14280
11871	2683	-54	-99	-5206	-3364	14280
11876	2689	-46	-95	-3806	-7173	12966
11881	2695	-43	-91	-3806	-7173	12966
11886	2686	-39	-100	-3806	-7173	12966
11891	2685	-25	-107	-3806	-7173	12966
11896	2692	-36	-101	-3806	-7173	12966
11901	2692	-22	-101	-3806	-7173	12966
11906	2683	-29	-106	-1860	-9229	11547
11911	2683	-23	-107	-1860	-9229	11547
11916	2683	-19	-121	-1860	-9229	11547
11921	2677	-16	-111	-1860	-9229	11547
11926	2665	-25	-102	-1860	-9229	11547
11931	2668	-9	-130	-1860	-9229	11547
11936	2664	-11	-128	-1860	-9229	11547
11941	2659	-1	-115	7	-9612	10988
11946	2654	-6	-119	7	-9612	10988
11951	2640	3	-122	7	-9612	10988
11956	2638	-3	-122	7	-9612	10988
11961	2636	-4	-144	7	-9612	10988
11966	2611	2	-132	7	-9612	10988
11971	2603	16	-150	-183	-8178	10704
11976	2596	8	-158	-183	-8178	10704
11981	2592	15	-158	-183	-8178	10704
11986	2571	6	-159	-183	-8178	10704
11991	2563	10	-163	-183	-8178	10704
11996	2551	4	-141	-183	-8178	10704
12001	-7739	8057	4310	-81	9075	1962
12006	-756	25	26	-81	9075	1962
12011	-15	-111	95	-81	9075	1962
12016	-1109	-2216	-1501	-81	9075	1962
12021	471	-2235	-2143	-81	9075	1962
12026	-364	-2627	-5391	-81	9075	1962
12031	2220	-1317	-6303	-3233	-991	1183
12036	2797	-823	-6445	-3233	-991	1183
12041	1602	-423	-6162	-3233	-991	1183
12046	923	714	-5130	-3233	-991	1183
12051	692	1565	-3683	-3233	-991	1183
12056	597	1666	-1972	-3233	-991	1183
12061	465	1095	100	-2613	4874	452
12066	264	757	1489	-2613	4874	452
12071	319	766	2123	-2613	4874	452
12076	475	847	2072	-2613	4874	452
12081	631	878	1443	-2613	4874	452
12086	536	772	534	-2613	4874	452
12091	875	431	-576	-2613	4874	452
12096	1297	71	-1295	-9309	2940	3688
12101	1311	0	-1578	-9309	2940	3688
12106	1104	289	-1603	-9309	2940	3688
12111	1084	520	-1633	-9309	2940	3688
12116	1225	791	-1568	-9309	2940	3688
12121	1623	1122	-1701	-9309	2940	3688
12126	2490	1303	-1339	-597	2589	2205
12131	3142	1582	-1251	-597	2589	2205
12136	3953	2147	-973	-597	2589	2205
12141	4247	2899	-782	-597	2589	2205
12146	3250	3553	-1088	-597	2589	2205
12151	2494	3528	-1775	-597	2589	2205
12156	2692	3485	-2370	-917	-142	1121
12161	2827	3387	-2869	-917	-142	1121
12166	2842	3612	-3269	-917	-142	1121
12171	2821	3897	-3393	-917	-142	1121
12176	3000	3926	-3383	-917	-142	1121
12181	2878	4027	-3440	-917	-142	1121
12186	2647	4097	-3324	-1057	-883	-3679
12191	2548	4430	-3042	-1057	-883	-3679
12196	2346	5316	-2626	-1057	-883	-3679
12201	2406	5936	-2151	-1057	-883	-3679
12206	2649	6068	-1644	-1057	-883	-3679
12211	2740	5788	-1375	-1057	-883	-3679
12216	3003	5466	-1217	-544	-1570	-7706
12221	3337	5384	-1394	-544	-1570	-7706
12226	3629	5450	-1718	-544	-1570	-7706
12231	3924	5415	-2129	-544	-1570	-7706
12236	4041	5418	-2468	-544	-1570	-7706
12241	4083	5583	-2464	-544	-1570	-7706
12246	4114	5585	-2179	-544	-1570	-7706
12251	4362	5309	-1892	166	-3786	-11504
12256	4887	4882	-1493	166	-3786	-11504
12261	5188	4183	-1151	166	-3786	-11504
12266	5326	3707	-1176	166	-3786	-11504
12271	5378	3367	-1518	166	-3786	-11504
12276	4834	2630	-1812	166	-3786	-11504
12281	4456	1672	-1351	-2318	-3220	-14204
12286	3575	523	-960	-2318	-3220	-14204
12291	2796	-44	-391	-2318	-3220	-14204
12296	2544	-112	-110	-2318	-3220	-14204
12301	2527	-108	-105	-2318	-3220	-14204
12306	2527	-93	-110	-2318	-3220	-14204
12311	2524	-91	-119	-2864	-773	-14476
12316	2524	-88	-116	-2864	-773	-14476
12321	2511	-84	-122	-2864	-773	-14476
12326	2514	-72	-143	-2864	-773	-14476
12331	2509	-75	-134	-2864	-773	-14476
12336	2516	-67	-128	-2864	-773	-14476
12341	2502	-60	-130	-2753	1982	-14424
12346	2497	-65	-126	-2753	1982	-14424
12351	2504	-72	-151	-2753	1982	-14424
12356	2498	-57	-138	-2753	1982	-14424
12361	2482	-53	-149	-2753	1982	-14424
12366	2490	-50	-149	-2753	1982	-14424
12371	2488	-50	-141	-1927	4058	-13826
12376	2490	-44	-143	-1927	4058	-13826
12381	2494	-43	-143	-1927	4058	-13826
12386	2487	-36	-154	-1927	4058	-13826
12391	2493	-37	-136	-1927	4058	-13826
12396	2498	-37	-148	-1927	4058	-13826
12401	2492	-30	-142	-1927	4058	-13826
12406	2498	-25	-144	-744	5269	-13332
12411	2492	-22	-133	-744	5269	-13332
12416	2493	-23	-154	-744	5269	-13332
12421	2502	-14	-147	-744	5269	-13332
12426	2508	-19	-158	-744	5269	-13332
12431	2507	-14	-147	-744	5269	-13332
12436	2505	-16	-135	615	5384	-13373
12441	2507	-21	-139	615	5384	-13373
12446	2518	-13	-132	615	5384	-13373
12451	2515	-13	-123	615	5384	-13373
12456	2506	-25	-113	615	5384	-13373
12461	2509	-9	-130	615	5384	-13373
12466	2510	-13	-135	1810	4391	-13474
12471	2511	-16	-134	1810	4391	-13474
12476	2500	-15	-126	1810	4391	-13474
12481	2493	-23	-115	1810	4391	-13474
12486	2501	-22	-122	1810	4391	-13474
12491	2490	-19	-113	1810	4391	-13474
12496	2487	-24	-96	1499	-144	12203
12501	2480	-22	-116	1499	-144	12203
12506	2478	-25	-114	1499	-144	12203
12511	-9232	-258	988	1499	-144	12203
12516	-833	52	7	1499	-144	12203
12521	-1128	425	-467	1499	-144	12203
12526	461	2031	-329	-5003	-4082	1634
12531	1292	1731	-940	-5003	-4082	1634
12536	1011	4792	-2976	-5003	-4082	1634
12541	1618	4444	-2666	-5003	-4082	1634
12546	3286	4509	-3267	-5003	-4082	1634
12551	2052	4292	-2409	-5003	-4082	1634
12556	1469	3692	-964	-5003	-4082	1634
12561	1272	2764	593	-611	-2800	3417
12566	967	1631	1284	-611	-2800	3417
12571	844	206	1166	-611	-2800	3417
12576	549	-1299	428	-611	-2800	3417
12581	204	-1705	673	-611	-2800	3417
12586	129	-1176	1290	-611	-2800	3417
12591	414	-717	1443	-2421	-602	5571
12596	655	-325	1385	-2421	-602	5571
12601	915	-217	1123	-2421	-602	5571
12606	1047	-115	946	-2421	-602	5571
12611	1338	79	1443	-2421	-602	5571
12616	2009	923	2600	-2421	-602	5571
12621	2941	1706	3048	2471	3195	3669
12626	3811	1982	2998	2471	3195	3669
12631	3729	2072	2462	2471	3195	3669
12636	3732	3487	364	2471	3195	3669
12641	4181	3633	-793	2471	3195	3669
12646	4318	4333	-1656	2471	3195	3669
12651	3920	4479	-2939	1108	-827	1841
12656	3899	4365	-3321	1108	-827	1841
12661	3814	4221	-2918	1108	-827	1841
12666	3821	4088	-1923	1108	-827	1841
12671	3980	4171	-1254	1108	-827	1841
12676	3922	4465	-997	1108	-827	1841
12681	3511	5125	-926	3092	-911	-2242
12686	3258	5680	-741	3092	-911	-2242
12691	2978	5835	-729	3092	-911	-2242
12696	2790	5555	-673	3092	-911	-2242
12701	2619	5080	-660	3092	-911	-2242
12706	2660	4801	-480	3092	-911	-2242
12711	3024	4835	-56	3092	-911	-2242
12716	3269	5102	252	-617	-1277	-6717
12721	3680	5410	-41	-617	-1277	-6717
12726	3648	5201	-1046	-617	-1277	-6717
12731	3835	4886	-1797	-617	-1277	-6717
12736	4172	4479	-1974	-617	-1277	-6717
12741	4688	4156	-1716	-617	-1277	-6717
12746	4995	4070	-1212	1654	-3645	-10164
12751	5273	4438	-1021	1654	-3645	-10164
12756	5527	4696	-1311	1654	-3645	-10164
12761	5537	4641	-1868	1654	-3645	-10164
12766	5484	4257	-2239	1654	-3645	-10164
12771	5268	3688	-2328	1654	-3645	-10164
12776	4595	2869	-2282	2434	-8800	-14690
12781	4228	1878	-1640	2434	-8800	-14690
12786	4044	677	-788	2434	-8800	-14690
12791	4183	-83	-138	2434	-8800	-14690
12796	3992	-329	162	2434	-8800	-14690
12801	3812	-201	40	2434	-8800	-14690
12806	3609	-134	-31	-143	-9831	-14274
12811	3606	-129	-24	-143	-9831	-14274
12816	3595	-117	-46	-143	-9831	-14274
12821	3591	-123	-55	-143	-9831	-14274
12826	3590	-116	-50	-143	-9831	-14274
12831	3583	-121	-63	-143	-9831	-14274
12836	3588	-119	-74	-2702	-8410	-15052
12841	3579	-118	-62	-2702	-8410	-15052
12846	3575	-123	-58	-2702	-8410	-15052
12851	3576	-131	-73	-2702	-8410	-15052
12856	3564	-138	-57	-2702	-8410	-15052
12861	3561	-144	-64	-2702	-8410	-15052
12866	3548	-146	-81	-2702	-8410	-15052
12871	3544	-143	-91	-4609	-4705	-16432
12876	3537	-143	-96	-4609	-4705	-16432
12881	3539	-148	-82	-4609	-4705	-16432
12886	3519	-144	-93	-4609	-4705	-16432
12891	3500	-136	-102	-4609	-4705	-16432
12896	3504	-132	-116	-4609	-4705	-16432
12901	3490	-131	-127	-5247	751	-17088
12906	3486	-130	-127	-5247	751	-17088
12911	3467	-133	-114	-5247	751	-17088
12916	3459	-116	-125	-5247	751	-17088
12921	3454	-104	-136	-5247	751	-17088
12926	3459	-83	-158	-5247	751	-17088
12931	3448	-85	-149	-4174	5833	-16031
12936	3441	-63	-141	-4174	5833	-16031
12941	3433	-57	-158	-4174	5833	-16031
12946	3432	-50	-155	-4174	5833	-16031
12951	3423	-28	-138	-4174	5833	-16031
12956	3425	-32	-156	-4174	5833	-16031
12961	3432	-26	-148	-14491	-71	3931
12966	3425	-14	-143	-14491	-71	3931
12971	3424	-8	-142	-14491	-71	3931
12976	3423	-7	-159	-14491	-71	3931
12981	3420	-10	-132	-14491	-71	3931
12986	-18216	-17211	-5280	-14491	-71	3931
12991	-2376	-261	-358	-1114	-7583	-705
12996	-2180	-35	-277	-1114	-7583	-705
13001	-3163	-25	-51	-1114	-7583	-705
13006	-1373	-134	-172	-1114	-7583	-705
13011	-197	88	-71	-1114	-7583	-705
13016	6	1508	-961	-1114	-7583	-705
13021	-290	2273	-1545	-1114	-7583	-705
13026	850	2098	2241	-5738	-2484	1682
13031	1051	1658	2224	-5738	-2484	1682
13036	-580	-124	2821	-5738	-2484	1682
13041	256	570	4350	-5738	-2484	1682
13046	1756	-139	5091	-5738	-2484	1682
13051	1287	-88	3767	-5738	-2484	1682
13056	834	-17	2178	-375	-4314	2051
13061	751	-565	944	-375	-4314	2051
13066	739	-912	388	-375	-4314	2051
13071	924	-1082	318	-375	-4314	2051
13076	1066	-916	630	-375	-4314	2051
13081	1199	-378	767	-375	-4314	2051
13086	1646	445	592	-12843	-3552	-959
13091	1737	846	453	-12843	-3552	-959
13096	1297	758	262	-12843	-3552	-959
13101	1104	603	198	-12843	-3552	-959
13106	987	429	212	-12843	-3552	-959
13111	724	269	264	-12843	-3552	-959
13116	625	-108	1018	-755	-2645	-4735
13121	778	-6	1056	-755	-2645	-4735
13126	1163	158	808	-755	-2645	-4735
13131	1916	273	633	-755	-2645	-4735
13136	3692	323	1025	-755	-2645	-4735
13141	5198	-167	1247	-755	-2645	-4735
13146	4541	-755	1470	-85	-1431	-3244
13151	2501	-1179	1977	-85	-1431	-3244
13156	2817	-2161	2165	-85	-1431	-3244
13161	3402	-3216	2421	-85	-1431	-3244
13166	3741	-4354	2805	-85	-1431	-3244
13171	4164	-5052	3287	-85	-1431	-3244
13176	4158	-5536	3812	-85	-1431	-3244
13181	3383	-5661	4392	106	1762	824
13186	3205	-5552	4798	106	1762	824
13191	3144	-5317	4837	106	1762	824
13196	3086	-4865	4478	106	1762	824
13201	3040	-4533	4076	106	1762	824
13206	2887	-4310	3700	106	1762	824
13211	2908	-4384	3372	-1625	3172	5693
13216	3024	-4694	2980	-1625	3172	5693
13221	3373	-5059	2840	-1625	3172	5693
13226	3732	-5160	3037	-1625	3172	5693
13231	4004	-4997	3696	-1625	3172	5693
13236	4287	-4809	4489	-1625	3172	5693
13241	4367	-4226	5204	-726	7768	7499
13246	4510	-3428	5293	-726	7768	7499
13251	4830	-2638	4567	-726	7768	7499
13256	5047	-2120	3573	-726	7768	7499
13261	5088	-1860	2649	-726	7768	7499
13266	5115	-1625	1942	-726	7768	7499
13271	4849	-1313	1538	-2126	6272	10299
13276	4517	-1032	964	-2126	6272	10299
13281	4069	-870	520	-2126	6272	10299
13286	2830	-623	158	-2126	6272	10299
13291	2382	-461	175	-2126	6272	10299
13296	2069	-150	-3	-2126	6272	10299
13301	2163	-11	-63	1218	8531	10835
13306	2350	-34	-39	1218	8531	10835
13311	2448	-67	-46	1218	8531	10835
13316	2365	-70	-73	1218	8531	10835
13321	2265	-66	-96	1218	8531	10835
13326	2261	-67	-100	1218	8531	10835
13331	2257	-59	-100	1218	8531	10835
13336	2261	-60	-87	-517	8775	10449
13341	2256	-58	-81	-517	8775	10449
13346	2259	-63	-81	-517	8775	10449
13351	2254	-61	-88	-517	8775	10449
13356	2251	-59	-93	-517	8775	10449
13361	2250	-54	-83	-517	8775	10449
13366	2247	-51	-90	-2179	7825	11295
13371	2242	-49	-82	-2179	7825	11295
13376	2243	-53	-76	-2179	7825	11295
13381	2249	-57	-82	-2179	7825	11295
13386	2239	-51	-82	-2179	7825	11295
13391	2237	-45	-64	-2179	7825	11295
13396	2241	-48	-72	-3732	5653	12237
13401	2232	-42	-92	-3732	5653	12237
13406	2242	-46	-85	-3732	5653	12237
13411	2234	-41	-95	-3732	5653	12237
13416	2235	-45	-88	-3732	5653	12237
13421	2232	-45	-68	-3732	5653	12237
13426	2228	-47	-89	-4751	2280	13350
13431	2236	-47	-91	-4751	2280	13350
13436	2240	-57	-73	-4751	2280	13350
13441	2238	-56	-86	-4751	2280	13350
13446	2232	-59	-99	-4751	2280	13350
13451	2239	-57	-90	-4751	2280	13350
13456	2235	-59	-90	-4887	-1834	13342
13461	2237	-62	-84	-4887	-1834	13342
13466	2242	-63	-105	-4887	-1834	13342
13471	2243	-64	-96	-4887	-1834	13342
13476	2240	-60	-92	-4887	-1834	13342
13481	2243	-54	-109	-4887	-1834	13342
13486	2245	-63	-114	-4887	-1834	13342
13491	2244	-61	-111	-26358	3751	-10102
13496	2233	-59	-117	-26358	3751	-10102
13501	2238	-61	-132	-26358	3751	-10102
13506	2231	-57	-139	-26358	3751	-10102
13511	2233	-52	-129	-26358	3751	-10102
13516	-8140	658	480	-26358	3751	-10102
13521	748	-1683	-1458	1439	5023	510
13526	853	-946	-2891	1439	5023	510
13531	1039	-139	-2458	1439	5023	510
13536	1895	313	-2214	1439	5023	510
13541	1941	-394	-2437	1439	5023	510
13546	1766	-1290	-3618	1439	5023	510
13551	3412	-2107	-6149	-5708	-3176	1600
13556	4568	-3688	-5843	-5708	-3176	1600
13561	2135	-2011	-6281	-5708	-3176	1600
13566	2218	-921	-6250	-5708	-3176	1600
13571	1846	125	-4114	-5708	-3176	1600
13576	1310	367	-1621	-5708	-3176	1600
13581	641	545	-137	-2942	4206	606
13586	872	803	542	-2942	4206	606
13591	1196	1016	1064	-2942	4206	606
13596	1718	1423	1606	-2942	4206	606
13601	2021	1870	2305	-2942	4206	606
13606	2293	1733	2011	-2942	4206	606
13611	2504	1268	1213	-1183	3693	950
13616	2669	1033	-125	-1183	3693	950
13621	2789	1025	-1271	-1183	3693	950
13626	2370	1312	-2564	-1183	3693	950
13631	2221	1551	-3405	-1183	3693	950
13636	2106	1635	-3591	-1183	3693	950
13641	2087	1506	-3311	-1183	3693	950
13646	2282	1465	-3236	-1140	116	688
13651	2519	1703	-3525	-1140	116	688
13656	2120	2041	-3886	-1140	116	688
13661	1828	2443	-4104	-1140	116	688
13666	1989	2724	-4082	-1140	116	688
13671	2268	2788	-3634	-1140	116	688
13676	2426	2892	-3302	-39	-1402	-676
13681	2502	3112	-3170	-39	-1402	-676
13686	2647	3363	-3325	-39	-1402	-676
13691	2642	3460	-3749	-39	-1402	-676
13696	2627	3494	-4186	-39	-1402	-676
13701	2671	3672	-4437	-39	-1402	-676
13706	2758	3961	-4535	-406	-4258	-5160
13711	2996	4320	-4227	-406	-4258	-5160
13716	3318	4703	-3971	-406	-4258	-5160
13721	3723	4901	-3917	-406	-4258	-5160
13726	4079	4826	-3926	-406	-4258	-5160
13731	3952	4424	-3913	-406	-4258	-5160
13736	3874	4199	-3946	-1160	-8734	-7899
13741	4027	3876	-4119	-1160	-8734	-7899
13746	4190	3591	-4223	-1160	-8734	-7899
13751	4485	3196	-4066	-1160	-8734	-7899
13756	4829	2671	-3580	-1160	-8734	-7899
13761	5260	2118	-3005	-1160	-8734	-7899
13766	5173	1613	-2751	-3256	-8997	-10587
13771	4911	1098	-2293	-3256	-8997	-10587
13776	3627	455	-1396	-3256	-8997	-10587
13781	2627	-47	-302	-3256	-8997	-10587
13786	2340	-113	-59	-3256	-8997	-10587
13791	2328	-107	-64	-3256	-8997	-10587
13796	2316	-95	-72	-3256	-8997	-10587
13801	2311	-103	-77	-4838	-6035	-12436
13806	2302	-99	-75	-4838	-6035	-12436
13811	2298	-96	-89	-4838	-6035	-12436
13816	2293	-96	-93	-4838	-6035	-12436
13821	2281	-99	-104	-4838	-6035	-12436
13826	2272	-99	-120	-4838	-6035	-12436
13831	2266	-98	-128	-5741	-1575	-13580
13836	2265	-98	-114	-5741	-1575	-13580
13841	2251	-97	-126	-5741	-1575	-13580
13846	2244	-87	-123	-5741	-1575	-13580
13851	2234	-80	-141	-5741	-1575	-13580
13856	2228	-83	-141	-5741	-1575	-13580
13861	2218	-70	-144	-5484	3271	-13388
13866	2221	-69	-149	-5484	3271	-13388
13871	2206	-59	-151	-5484	3271	-13388
13876	2203	-54	-153	-5484	3271	-13388
13881	2196	-40	-158	-5484	3271	-13388
13886	2198	-36	-161	-5484	3271	-13388
13891	2198	-30	-154	-4278	7187	-11567
13896	2199	-16	-159	-4278	7187	-11567
13901	2203	-9	-157	-4278	7187	-11567
13906	2195	-12	-161	-4278	7187	-11567
13911	2201	4	-144	-4278	7187	-11567
13916	2197	4	-157	-4278	7187	-11567
13921	2207	13	-160	-2535	9567	-9752
13926	2214	15	-141	-2535	9567	-9752
13931	2212	16	-134	-2535	9567	-9752
13936	2219	28	-144	-2535	9567	-9752
13941	2216	15	-134	-2535	9567	-9752
13946	2225	23	-142	-2535	9567	-9752
13951	2222	25	-130	-2535	9567	-9752
13956	2227	27	-117	-955	10497	-8695
13961	2233	38	-117	-955	10497	-8695
13966	2231	35	-113	-955	10497	-8695
13971	2238	32	-98	-955	10497	-8695
13976	2229	44	-97	-955	10497	-8695
13981	2226	37	-90	-955	10497	-8695
13986	2226	28	-75	-16485	-2453	-4
13991	2215	19	-76	-16485	-2453	-4
13996	-4011	24327	21727	-16485	-2453	-4
14001	-1564	-624	822	-16485	-2453	-4
14006	142	-537	435	-16485	-2453	-4
14011	425	150	-1818	-16485	-2453	-4
14016	463	-14	-203	-1317	-1094	-1709
14021	1013	-438	1712	-1317	-1094	-1709
14026	1764	-517	2064	-1317	-1094	-1709
14031	1606	-779	2094	-1317	-1094	-1709
14036	1097	-1183	2874	-1317	-1094	-1709
14041	872	-1797	3478	-1317	-1094	-1709
14046	733	-1948	2896	-5174	-2812	-489
14051	465	-1994	1488	-5174	-2812	-489
14056	371	-1532	-273	-5174	-2812	-489
14061	454	-770	-1660	-5174	-2812	-489
14066	653	-709	-2256	-5174	-2812	-489
14071	786	-876	-2102	-5174	-2812	-489
14076	985	-1057	-1515	-6470	-2820	-3276
14081	1326	-983	-899	-6470	-2820	-3276
14086	1630	-697	-382	-6470	-2820	-3276
14091	1683	-209	344	-6470	-2820	-3276
14096	1968	135	1118	-6470	-2820	-3276
14101	2101	263	1574	-6470	-2820	-3276
14106	1937	-38	1685	-6470	-2820	-3276
14111	1745	-559	1546	-4374	1457	-6631
14116	1598	-1138	1280	-4374	1457	-6631
14121	1494	-1599	977	-4374	1457	-6631
14126	1670	-1847	406	-4374	1457	-6631
14131	2116	-1818	19	-4374	1457	-6631
14136	2461	-1792	-193	-4374	1457	-6631
14141	3533	-2364	-402	-293	-947	-721
14146	6052	-4502	-1569	-293	-947	-721
14151	5753	-6748	-1702	-293	-947	-721
14156	1411	-5891	228	-293	-947	-721
14161	1338	-5375	818	-293	-947	-721
14166	2174	-5217	787	-293	-947	-721
14171	2261	-4484	598	350	-255	433
14176	2365	-3872	508	350	-255	433
14181	2435	-4012	511	350	-255	433
14186	2288	-4589	718	350	-255	433
14191	2221	-5059	976	350	-255	433
14196	2291	-5304	1126	350	-255	433
14201	2291	-5367	1174	-266	-409	4965
14206	2396	-5271	985	-266	-409	4965
14211	2649	-5264	608	-266	-409	4965
14216	2854	-5586	241	-266	-409	4965
14221	3132	-5927	-23	-266	-409	4965
14226	3373	-6016	-186	-266	-409	4965
14231	3726	-5935	-144	1782	1033	8908
14236	3998	-5500	148	1782	1033	8908
14241	4155	-4988	441	1782	1033	8908
14246	4091	-4900	705	1782	1033	8908
14251	4128	-4880	776	1782	1033	8908
14256	4212	-4721	734	1782	1033	8908
14261	4407	-4418	686	1782	1033	8908
14266	4340	-4123	729	3000	4195	12751
14271	3959	-3822	402	3000	4195	12751
14276	4126	-3569	199	3000	4195	12751
14281	3687	-2648	126	3000	4195	12751
14286	3384	-1512	80	3000	4195	12751
14291	2770	-481	14	3000	4195	12751
14296	2299	-44	-127	1704	6163	12116
14301	2265	-50	-138	1704	6163	12116
14306	2264	-57	-121	1704	6163	12116
14311	2262	-53	-107	1704	6163	12116
14316	2266	-62	-105	1704	6163	12116
14321	2261	-71	-99	1704	6163	12116
14326	2264	-67	-97	225	7054	11841
14331	2261	-64	-91	225	7054	11841
14336	2262	-73	-80	225	7054	11841
14341	2258	-57	-101	225	7054	11841
14346	2252	-70	-100	225	7054	11841
14351	2257	-74	-96	225	7054	11841
14356	2259	-63	-89	-1303	6633	12058
14361	2262	-60	-94	-1303	6633	12058
14366	2258	-53	-89	-1303	6633	12058
14371	2254	-52	-92	-1303	6633	12058
14376	2250	-53	-100	-1303	6633	12058
14381	2251	-60	-89	-1303	6633	12058
14386	2245	-53	-99	-2671	5053	12531
14391	2244	-60	-86	-2671	5053	12531
14396	2249	-48	-92	-2671	5053	12531
14401	2243	-47	-85	-2671	5053	12531
14406	2243	-48	-95	-2671	5053	12531
14411	2240	-43	-87	-2671	5053	12531
14416	2242	-55	-104	-2671	5053	12531
14421	2232	-55	-94	-3663	2523	13313
14426	2240	-50	-102	-3663	2523	13313
14431	2250	-51	-90	-3663	2523	13313
14436	2237	-52	-93	-3663	2523	13313
14441	2242	-49	-92	-3663	2523	13313
14446	2244	-52	-105	-3663	2523	13313
14451	2238	-51	-100	-3952	-575	13403
14456	2249	-54	-98	-3952	-575	13403
14461	2244	-50	-100	-3952	-575	13403
14466	2239	-65	-102	-3952	-575	13403
14471	2242	-61	-104	-3952	-575	13403
14476	2245	-61	-117	-3952	-575	13403
14481	2240	-63	-111	-3632	-3562	12987
14486	2243	-67	-127	-3632	-3562	12987
14491	2240	-61	-111	-3632	-3562	12987
14496	2236	-66	-105	-3632	-3562	12987
14501	2228	-60	-126	-3632	-3562	12987
14506	2226	-62	-140	-3632	-3562	12987
14511	2221	-52	-124	-21184	8260	-5494
14516	2223	-52	-122	-21184	8260	-5494
14521	2214	-44	-138	-21184	8260	-5494
14526	2200	-39	-122	-21184	8260	-5494
14531	-14871	7338	-1792	-21184	8260	-5494
14536	-5296	-907	2113	-21184	8260	-5494
14541	-2111	-40	538	1421	11208	-480
14546	537	194	86	1421	11208	-480
14551	1162	-511	-1033	1421	11208	-480
14556	2625	-33	-535	1421	11208	-480
14561	3513	-437	-1084	1421	11208	-480
14566	3207	-590	-1456	1421	11208	-480
14571	6520	92	-3430	1421	11208	-480
14576	8236	-13	-4846	-4067	-1302	1250
14581	5752	-1209	-7348	-4067	-1302	1250
14586	1963	-1803	-7922	-4067	-1302	1250
14591	2058	-1229	-7341	-4067	-1302	1250
14596	2458	114	-6558	-4067	-1302	1250
14601	1692	1153	-5465	-4067	-1302	1250
14606	1917	1596	-3961	-1232	376	-166
14611	1908	1678	-2624	-1232	376	-166
14616	1723	1552	-1468	-1232	376	-166
14621	1608	1342	-720	-1232	376	-166
14626	1394	1104	81	-1232	376	-166
14631	1113	1040	523	-1232	376	-166
14636	1169	1104	641	-2652	2099	-973
14641	1326	1127	329	-2652	2099	-973
14646	1260	1116	-420	-2652	2099	-973
14651	1093	1053	-1083	-2652	2099	-973
14656	1426	829	-1575	-2652	2099	-973
14661	1457	506	-1969	-2652	2099	-973
14666	1749	59	-2232	-956	1404	1649
14671	1761	-255	-2342	-956	1404	1649
14676	1812	-336	-2346	-956	1404	1649
14681	1569	-326	-2202	-956	1404	1649
14686	1553	-303	-1860	-956	1404	1649
14691	1785	-233	-1525	-956	1404	1649
14696	1553	-103	-1125	1034	3596	2128
14701	1371	134	-891	1034	3596	2128
14706	1419	421	-882	1034	3596	2128
14711	1816	838	-1227	1034	3596	2128
14716	2151	1351	-1692	1034	3596	2128
14721	2466	1848	-2164	1034	3596	2128
14726	2644	2185	-2721	1034	3596	2128
14731	2580	2355	-3242	1306	-316	1
14736	2422	2415	-3783	1306	-316	1
14741	2471	2472	-4542	1306	-316	1
14746	2561	2520	-5398	1306	-316	1
14751	2517	2425	-6070	1306	-316	1
14756	2440	2427	-6270	1306	-316	1
14761	2801	2602	-6026	955	-4823	-1413
14766	3111	2683	-5568	955	-4823	-1413
14771	3357	2570	-5235	955	-4823	-1413
14776	3591	2206	-5327	955	-4823	-1413
14781	3739	1656	-5719	955	-4823	-1413
14786	3714	1126	-5975	955	-4823	-1413
14791	3853	838	-5962	-1947	-9545	-1401
14796	4105	727	-5486	-1947	-9545	-1401
14801	4342	803	-4824	-1947	-9545	-1401
14806	4446	954	-4370	-1947	-9545	-1401
14811	4515	1039	-4247	-1947	-9545	-1401
14816	4651	1103	-4794	-1947	-9545	-1401
14821	5028	1236	-5434	-6651	-13853	-9075
14826	5578	1488	-5522	-6651	-13853	-9075
14831	6126	1475	-4872	-6651	-13853	-9075
14836	6045	1002	-3611	-6651	-13853	-9075
14841	6194	520	-2075	-6651	-13853	-9075
14846	5058	252	213	-6651	-13853	-9075
14851	4030	88	649	-9293	-7322	-14544
14856	3353	-150	4	-9293	-7322	-14544
14861	3256	-181	-25	-9293	-7322	-14544
14866	3230	-195	-40	-9293	-7322	-14544
14871	3204	-190	-56	-9293	-7322	-14544
14876	3182	-180	-77	-9293	-7322	-14544
14881	3158	-176	-98	-9293	-7322	-14544
14886	3138	-177	-109	-9917	2175	-15979
14891	3116	-163	-112	-9917	2175	-15979
14896	3090	-141	-142	-9917	2175	-15979
14901	3072	-126	-149	-9917	2175	-15979
14906	3063	-114	-155	-9917	2175	-15979
14911	3046	-91	-171	-9917	2175	-15979
14916	3036	-64	-157	-8188	10608	-12317
14921	3025	-39	-164	-8188	10608	-12317
14926	3023	-21	-169	-8188	10608	-12317
14931	3032	10	-155	-8188	10608	-12317
14936	3028	23	-165	-8188	10608	-12317
14941	3042	27	-143	-8188	10608	-12317
14946	3038	52	-147	-5910	14924	-6705
14951	3054	57	-140	-5910	14924	-6705
14956	3063	71	-127	-5910	14924	-6705
14961	3066	71	-113	-5910	14924	-6705
14966	3084	76	-119	-5910	14924	-6705
14971	3083	77	-106	-5910	14924	-6705
14976	3089	83	-92	-4688	16224	-1779
14981	3090	78	-82	-4688	16224	-1779
14986	3099	75	-66	-4688	16224	-1779
14991	3097	69	-61	-4688	16224	-1779
14996	3105	61	-64	-4688	16224	-1779
15001	3096	57	-55	-4688	16224	-1779
15006	3100	52	-46	-4909	15892	3014
15011	3080	43	-34	-4909	15892	3014
15016	3088	47	-42	-4909	15892	3014
15021	3077	45	-26	-4909	15892	3014
15026	3067	29	-35	-4909	15892	3014
15031	3069	30	-22	-4909	15892	3014
15036	3052	28	-27	-4909	15892	3014
15041	3034	21	-31	-32768	-7721	-4391
15046	-11953	-1746	-9416	-32768	-7721	-4391
15051	-986	-210	-949	-32768	-7721	-4391
15056	1135	-466	228	-32768	-7721	-4391
15061	1207	-494	224	-32768	-7721	-4391
15066	1145	-503	194	-32768	-7721	-4391
15071	-88	-566	411	-9219	8642	5302
15076	-2546	-6411	1632	-9219	8642	5302
15081	-2848	-10237	2660	-9219	8642	5302
15086	-1998	-8949	1653	-9219	8642	5302
15091	1754	-7189	-224	-9219	8642	5302
15096	2844	-5080	-3379	-9219	8642	5302
15101	1512	-4130	-3771	-589	719	-2906
15106	-621	-2123	-4395	-589	719	-2906
15111	-361	2796	-4869	-589	719	-2906
15116	196	6798	-3198	-589	719	-2906
15121	-1568	3746	-602	-589	719	-2906
15126	-2639	2114	802	-589	719	-2906
15131	-1584	1366	812	-1345	3462	-4678
15136	-516	1004	724	-1345	3462	-4678
15141	-228	1040	485	-1345	3462	-4678
15146	145	1044	213	-1345	3462	-4678
15151	433	786	-128	-1345	3462	-4678
15156	476	506	-274	-1345	3462	-4678
15161	516	380	-207	-4993	2694	-2687
15166	543	-646	-655	-4993	2694	-2687
15171	603	-168	-466	-4993	2694	-2687
15176	411	-453	-583	-4993	2694	-2687
15181	777	-425	-803	-4993	2694	-2687
15186	851	-526	-868	-4993	2694	-2687
15191	873	-603	-867	-4993	2694	-2687
15196	775	-757	-837	-2360	5231	991
15201	634	-749	-809	-2360	5231	991
15206	585	-644	-808	-2360	5231	991
15211	885	-531	-859	-2360	5231	991
15216	1279	-430	-797	-2360	5231	991
15221	2047	-407	-1198	-2360	5231	991
15226	3292	-166	-2569	-593	2533	-1745
15231	4648	-23	-3783	-593	2533	-1745
15236	5231	792	-3986	-593	2533	-1745
15241	4595	4054	-3980	-593	2533	-1745
15246	2989	3256	-4931	-593	2533	-1745
15251	2229	772	-4844	-593	2533	-1745
15256	2460	-73	-5110	1	952	229
15261	2423	-487	-5246	1	952	229
15266	2322	-490	-5182	1	952	229
15271	2219	-189	-4751	1	952	229
15276	2212	-131	-4396	1	952	229
15281	2329	-333	-4279	1	952	229
15286	2390	-183	-4713	-1321	-3721	-1224
15291	2396	188	-5348	-1321	-3721	-1224
15296	2282	748	-6164	-1321	-3721	-1224
15301	2320	1454	-6696	-1321	-3721	-1224
15306	2391	1955	-6816	-1321	-3721	-1224
15311	2529	2125	-6635	-1321	-3721	-1224
15316	2716	2146	-6406	857	-7801	-2141
15321	2911	1819	-6071	857	-7801	-2141
15326	3141	1605	-5893	857	-7801	-2141
15331	3237	1492	-5820	857	-7801	-2141
15336	3352	1563	-5710	857	-7801	-2141
15341	3568	1871	-5510	857	-7801	-2141
15346	3935	2022	-5443	857	-7801	-2141
15351	4254	1997	-5529	-5927	-12953	-5125
15356	4807	1813	-5233	-5927	-12953	-5125
15361	5352	1311	-4361	-5927	-12953	-5125
15366	5622	622	-3201	-5927	-12953	-5125
15371	4790	269	-1852	-5927	-12953	-5125
15376	3344	-170	-574	-5927	-12953	-5125
15381	2518	-133	-66	-8503	-8734	-10734
15386	2552	-151	-75	-8503	-8734	-10734
15391	2644	-122	-56	-8503	-8734	-10734
15396	2381	-130	-45	-8503	-8734	-10734
15401	2351	-146	-68	-8503	-8734	-10734
15406	2336	-139	-74	-8503	-8734	-10734
15411	2315	-143	-88	-9674	-1498	-13792
15416	2309	-142	-102	-9674	-1498	-13792
15421	2282	-125	-110	-9674	-1498	-13792
15426	2266	-117	-120	-9674	-1498	-13792
15431	2250	-115	-123	-9674	-1498	-13792
15436	2230	-99	-134	-9674	-1498	-13792
15441	2218	-90	-146	-8972	6519	-12181
15446	2212	-71	-144	-8972	6519	-12181
15451	2192	-67	-144	-8972	6519	-12181
15456	2182	-44	-145	-8972	6519	-12181
15461	2182	-26	-166	-8972	6519	-12181
15466	2190	-8	-157	-8972	6519	-12181
15471	2192	10	-155	-7295	11824	-7536
15476	2192	17	-160	-7295	11824	-7536
15481	2195	36	-154	-7295	11824	-7536
15486	2201	40	-160	-7295	11824	-7536
15491	2202	53	-135	-7295	11824	-7536
15496	2214	66	-130	-7295	11824	-7536
15501	2217	69	-128	-7295	11824	-7536
15506	2217	66	-127	-6143	13784	-2435
15511	2230	79	-116	-6143	13784	-2435
15516	2237	72	-108	-6143	13784	-2435
15521	2237	67	-97	-6143	13784	-2435
15526	2243	70	-86	-6143	13784	-2435
15531	2250	66	-86	-6143	13784	-2435
15536	2251	57	-59	-6195	13729	2673
15541	2253	62	-57	-6195	13729	2673
15546	2247	50	-53	-6195	13729	2673
15551	2246	49	-56	-6195	13729	2673
15556	2255	50	-34	-6195	13729	2673
15561	2242	42	-33	-6195	13729	2673
15566	2235	45	-28	-23959	10527	8519
15571	2241	27	-10	-23959	10527	8519
15576	2227	18	-13	-23959	10527	8519
15581	2221	16	-5	-23959	10527	8519
15586	2208	10	18	-23959	10527	8519
15591	617	4325	9321	-23959	10527	8519
15596	1743	-2	-10	-2733	4028	-6147
15601	-2752	-5817	-427	-2733	4028	-6147
15606	-292	-6175	3405	-2733	4028	-6147
15611	377	-908	-593	-2733	4028	-6147
15616	1196	-443	-436	-2733	4028	-6147
15621	901	-3531	-224	-2733	4028	-6147
15626	1753	-4138	-1851	-6286	3643	2243
15631	2476	-3108	-1310	-6286	3643	2243
15636	2698	-3488	-459	-6286	3643	2243
15641	1632	-3619	-242	-6286	3643	2243
15646	591	-2950	-1074	-6286	3643	2243
15651	286	-1547	-1604	-6286	3643	2243
15656	253	-570	-1393	-6286	3643	2243
15661	497	1818	-2379	-2226	-92	-4433
15666	312	2948	-2576	-2226	-92	-4433
15671	320	2042	-2243	-2226	-92	-4433
15676	513	969	-2218	-2226	-92	-4433
15681	507	-101	-1818	-2226	-92	-4433
15686	809	-792	-1492	-2226	-92	-4433
15691	770	-1124	-1223	-5149	1009	-2298
15696	579	-1288	-1003	-5149	1009	-2298
15701	545	-1227	-1006	-5149	1009	-2298
15706	531	-1145	-1049	-5149	1009	-2298
15711	593	-1119	-1151	-5149	1009	-2298
15716	1135	-867	-1161	-5149	1009	-2298
15721	1290	-671	-962	-3628	3741	516
15726	2055	-490	-1033	-3628	3741	516
15731	3105	-231	-1575	-3628	3741	516
15736	3070	-444	-1657	-3628	3741	516
15741	2613	-577	-1416	-3628	3741	516
15746	2694	278	-1191	-3628	3741	516
15751	2881	1587	-1822	-377	1623	-552
15756	3026	1137	-2786	-377	1623	-552
15761	2808	-61	-3414	-377	1623	-552
15766	2456	-646	-4132	-377	1623	-552
15771	2392	-811	-4867	-377	1623	-552
15776	2572	-731	-5017	-377	1623	-552
15781	2517	-817	-4794	1115	-981	461
15786	2556	-965	-4646	1115	-981	461
15791	2555	-1059	-4736	1115	-981	461
15796	2447	-957	-4964	1115	-981	461
15801	2462	-761	-5045	1115	-981	461
15806	2439	-673	-4950	1115	-981	461
15811	2478	-657	-4908	1115	-981	461
15816	2530	-621	-4983	2611	-5063	2315
15821	2860	-737	-5417	2611	-5063	2315
15826	3445	-1065	-6132	2611	-5063	2315
15831	3659	-1716	-6494	2611	-5063	2315
15836	3890	-2249	-6324	2611	-5063	2315
15841	4264	-2559	-6016	2611	-5063	2315
15846	4541	-2179	-5545	926	-9178	5063
15851	4547	-1839	-5129	926	-9178	5063
15856	4433	-1675	-4650	926	-9178	5063
15861	4545	-1487	-4383	926	-9178	5063
15866	4869	-1662	-4509	926	-9178	5063
15871	5157	-1757	-4448	926	-9178	5063
15876	5514	-1683	-4171	1138	-11658	6365
15881	5938	-1347	-3696	1138	-11658	6365
15886	5807	-933	-2884	1138	-11658	6365
15891	4624	-544	-1821	1138	-11658	6365
15896	3310	-203	-813	1138	-11658	6365
15901	2225	50	-94	1138	-11658	6365
15906	2072	54	-56	2557	-10606	7621
15911	2067	45	-73	2557	-10606	7621
15916	2054	41	-86	2557	-10606	7621
15921	2050	40	-96	2557	-10606	7621
15926	2040	42	-85	2557	-10606	7621
15931	2031	45	-99	2557	-10606	7621
15936	2041	41	-107	4189	-8602	9717
15941	2035	50	-115	4189	-8602	9717
15946	2018	45	-119	4189	-8602	9717
15951	2009	39	-130	4189	-8602	9717
15956	2001	46	-135	4189	-8602	9717
15961	2006	49	-139	4189	-8602	9717
15966	2001	43	-117	4189	-8602	9717
15971	1989	34	-136	5619	-5103	11948
15976	1985	35	-131	5619	-5103	11948
15981	1977	36	-130	5619	-5103	11948
15986	1972	29	-162	5619	-5103	11948
15991	1966	26	-143	5619	-5103	11948
15996	1960	15	-152	5619	-5103	11948
16001	1967	8	-140	6344	-145	12956
16006	1962	10	-144	6344	-145	12956
16011	1962	-4	-140	6344	-145	12956
16016	1959	-12	-153	6344	-145	12956
16021	1959	-17	-137	6344	-145	12956
16026	1958	-26	-152	6344	-145	12956
16031	1957	-30	-139	5812	4652	12058
16036	1967	-46	-148	5812	4652	12058
16041	1971	-49	-147	5812	4652	12058
16046	1982	-60	-153	5812	4652	12058
16051	1975	-62	-145	5812	4652	12058
16056	1991	-72	-124	5812	4652	12058
16061	1986	-72	-120	4470	8340	9940
16066	1994	-77	-110	4470	8340	9940
16071	2001	-82	-108	4470	8340	9940
16076	2008	-89	-106	4470	8340	9940
16081	2013	-88	-104	4470	8340	9940
16086	2012	-81	-94	4470	8340	9940
16091	2014	-90	-88	3078	10353	7728
16096	2012	-83	-96	3078	10353	7728
16101	2015	-78	-60	3078	10353	7728
16106	2023	-73	-61	3078	10353	7728
16111	2008	-71	-46	3078	10353	7728
16116	2010	-67	-37	3078	10353	7728
16121	1995	-62	-40	3078	10353	7728
16126	1754	-209	1149	-30340	159	-10048
16131	1146	-381	-206	-30340	159	-10048
16136	-6389	7406	-7897	-30340	159	-10048
16141	-2429	-8977	3904	-30340	159	-10048
16146	130	-4478	249	-30340	159	-10048
16151	577	-3094	-1614	-30340	159	-10048
16156	316	1154	-2717	-3504	4562	1209
16161	-735	659	-1490	-3504	4562	1209
16166	-678	-4744	-1695	-3504	4562	1209
16171	1579	-5991	-1858	-3504	4562	1209
16176	3303	-4998	-9	-3504	4562	1209
16181	3346	-3581	-630	-3504	4562	1209
16186	2661	-1882	-2574	-3310	2092	-1808
16191	1503	-462	-2688	-3310	2092	-1808
16196	1002	67	-2122	-3310	2092	-1808
16201	739	732	-1992	-3310	2092	-1808
16206	780	958	-1560	-3310	2092	-1808
16211	836	734	-1130	-3310	2092	-1808
16216	695	531	-969	-1857	3459	-2916
16221	952	363	-1022	-1857	3459	-2916
16226	1133	14	-842	-1857	3459	-2916
16231	1258	-251	-568	-1857	3459	-2916
16236	1316	-296	-291	-1857	3459	-2916
16241	1350	-225	-198	-1857	3459	-2916
16246	1689	-148	-295	-2175	4744	-51
16251	2113	-318	-834	-2175	4744	-51
16256	2190	-551	-1165	-2175	4744	-51
16261	2235	-549	-1454	-2175	4744	-51
16266	2573	-569	-1838	-2175	4744	-51
16271	3022	-679	-2320	-2175	4744	-51
16276	3369	-678	-2847	-2175	4744	-51
16281	3806	-275	-3638	223	1105	-226
16286	3359	241	-4420	223	1105	-226
16291	2661	517	-4929	223	1105	-226
16296	2448	639	-5346	223	1105	-226
16301	2622	729	-5493	223	1105	-226
16306	2766	631	-5558	223	1105	-226
16311	2878	470	-5575	663	-1817	345
16316	2858	295	-5573	663	-1817	345
16321	2828	127	-5579	663	-1817	345
16326	2914	19	-5537	663	-1817	345
16331	3013	-98	-5373	663	-1817	345
16336	3216	-108	-5178	663	-1817	345
16341	3797	206	-5105	2949	-6239	934
16346	4379	415	-5501	2949	-6239	934
16351	4821	337	-6053	2949	-6239	934
16356	5004	7	-6583	2949	-6239	934
16361	5121	-447	-6983	2949	-6239	934
16366	4601	-1150	-6599	2949	-6239	934
16371	4280	-1435	-5491	919	-10515	3988
16376	3941	-1263	-4535	919	-10515	3988
16381	3730	-962	-3711	919	-10515	3988
16386	3721	-636	-2981	919	-10515	3988
16391	3753	-348	-2529	919	-10515	3988
16396	3884	-156	-2050	919	-10515	3988
16401	4002	-107	-1839	-12982	-15240	-632
16406	3787	-240	-1796	-12982	-15240	-632
16411	3310	-285	-1678	-12982	-15240	-632
16416	2891	-369	-1449	-12982	-15240	-632
16421	3132	-428	-1596	-12982	-15240	-632
16426	3638	-444	-1789	-12982	-15240	-632
16431	3442	-381	-1117	-12982	-15240	-632
16436	3039	-214	-3	-14624	-10150	-11576
16441	2966	-204	-4	-14624	-10150	-11576
16446	2969	-210	-21	-14624	-10150	-11576
16451	2918	-238	-9	-14624	-10150	-11576
16456	2886	-237	-46	-14624	-10150	-11576
16461	2837	-240	-69	-14624	-10150	-11576
16466	2798	-232	-75	-15319	3505	-14869
16471	2760	-209	-101	-15319	3505	-14869
16476	2714	-185	-104	-15319	3505	-14869
16481	2667	-157	-134	-15319	3505	-14869
16486	2643	-125	-140	-15319	3505	-14869
16491	2620	-87	-141	-15319	3505	-14869
16496	2604	-47	-162	-13448	13886	-6754
16501	2599	-9	-155	-13448	13886	-6754
16506	2595	34	-141	-13448	13886	-6754
16511	2602	56	-124	-13448	13886	-6754
16516	2605	81	-122	-13448	13886	-6754
16521	2618	98	-100	-13448	13886	-6754
16526	2626	108	-81	-13230	14462	5114
16531	2644	121	-70	-13230	14462	5114
16536	2654	110	-49	-13230	14462	5114
16541	2678	113	-24	-13230	14462	5114
16546	2679	93	-8	-13230	14462	5114
16551	2692	84	0	-13230	14462	5114
16556	2707	67	29	-15326	4973	14236
16561	2717	43	40	-15326	4973	14236
16566	2725	14	41	-15326	4973	14236
16571	2736	-15	42	-15326	4973	14236
16576	2758	-38	49	-15326	4973	14236
16581	2777	-59	51	-15326	4973	14236
16586	2789	-79	51	-15326	4973	14236
16591	2808	-105	17	-15095	-8496	12273
16596	2825	-113	36	-15095	-8496	12273
16601	2861	-129	16	-15095	-8496	12273
16606	2873	-135	13	-15095	-8496	12273
16611	2895	-143	-9	-15095	-8496	12273
16616	2902	-133	-28	-15095	-8496	12273
16621	2909	-127	-20	-32753	7685	3872
16626	2906	-132	-26	-32753	7685	3872
16631	-688	1641	1117	-32753	7685	3872
16636	-4573	-1239	3914	-32753	7685	3872
16641	213	-288	479	-32753	7685	3872
16646	426	-217	502	-32753	7685	3872
16651	412	10709	355	-591	-4749	1814
16656	1054	328	-1637	-591	-4749	1814
16661	2997	1237	-823	-591	-4749	1814
16666	2130	8669	-1919	-591	-4749	1814
16671	1602	7855	-4013	-591	-4749	1814
16676	2964	8472	-3774	-591	-4749	1814
16681	3515	8210	-2908	-5033	-372	-1246
16686	2355	7344	-1483	-5033	-372	-1246
16691	1365	4927	-4	-5033	-372	-1246
16696	784	2729	674	-5033	-372	-1246
16701	607	321	1850	-5033	-372	-1246
16706	754	-1393	2888	-5033	-372	-1246
16711	-318	164	2114	2893	-1512	-1518
16716	-807	1649	1858	2893	-1512	-1518
16721	-828	2678	1401	2893	-1512	-1518
16726	-649	3716	869	2893	-1512	-1518
16731	-559	4406	591	2893	-1512	-1518
16736	-494	4168	533	2893	-1512	-1518
16741	-259	3744	265	2893	-1512	-1518
16746	-341	3268	-31	-2477	-1060	-3051
16751	-591	2911	41	-2477	-1060	-3051
16756	-528	2545	819	-2477	-1060	-3051
16761	-506	2195	1527	-2477	-1060	-3051
16766	-719	1994	1936	-2477	-1060	-3051
16771	-876	1713	2021	-2477	-1060	-3051
16776	-736	1540	1632	-1713	-967	-2402
16781	-696	1468	1012	-1713	-967	-2402
16786	-670	1364	539	-1713	-967	-2402
16791	-590	1201	466	-1713	-967	-2402
16796	-571	955	579	-1713	-967	-2402
16801	-516	779	850	-1713	-967	-2402
16806	-528	788	1056	-346	580	-1105
16811	-602	762	1122	-346	580	-1105
16816	-696	758	1193	-346	580	-1105
16821	-826	863	1448	-346	580	-1105
16826	-815	905	1546	-346	580	-1105
16831	-823	923	1269	-346	580	-1105
16836	-864	1027	996	-1743	-528	11
16841	-729	1121	654	-1743	-528	11
16846	-654	1023	303	-1743	-528	11
16851	-636	890	42	-1743	-528	11
16856	-569	686	59	-1743	-528	11
16861	-650	358	213	-1743	-528	11
16866	-776	445	506	-1495	-107	626
16871	-761	730	941	-1495	-107	626
16876	-784	861	1224	-1495	-107	626
16881	-835	964	1389	-1495	-107	626
16886	-872	1100	1495	-1495	-107	626
16891	-887	1225	1531	-1495	-107	626
16896	-904	1278	1544	-1495	-107	626
16901	-881	1313	1455	-113	-108	948
16906	-833	1202	1241	-113	-108	948
16911	-844	1066	1111	-113	-108	948
16916	-823	1042	1205	-113	-108	948
16921	-788	1112	1444	-113	-108	948
16926	-766	1258	1684	-113	-108	948
16931	-685	1439	1835	1039	919	743
16936	-635	1507	1848	1039	919	743
16941	-688	1521	1739	1039	919	743
16946	-733	1367	1580	1039	919	743
16951	-980	1173	1358	1039	919	743
16956	-756	937	1117	1039	919	743
16961	-401	2641	2618	-332	2011	280
16966	-978	1196	989	-332	2011	280
16971	-732	1350	979	-332	2011	280
16976	-439	1422	997	-332	2011	280
16981	-565	218	3902	-332	2011	280
16986	-676	1555	865	-332	2011	280
16991	-961	1536	864	-543	1156	1165
16996	-1042	1537	967	-543	1156	1165
17001	-1055	1596	1020	-543	1156	1165
17006	-1020	1660	1035	-543	1156	1165
17011	-1026	1617	976	-543	1156	1165
17016	-999	1531	995	-543	1156	1165
17021	-949	1481	1004	1385	1872	522
17026	-978	1499	1039	1385	1872	522
17031	-998	1660	1110	1385	1872	522
17036	-945	1965	1130	1385	1872	522
17041	-809	2036	1069	1385	1872	522
17046	-645	1937	1103	1385	1872	522
17051	-551	1848	1070	1385	1872	522
17056	-353	1712	913	2165	2504	-2015
17061	-216	1776	983	2165	2504	-2015
17066	-199	1934	868	2165	2504	-2015
17071	-201	1959	763	2165	2504	-2015
17076	-533	2092	792	2165	2504	-2015
17081	-1030	2265	716	2165	2504	-2015
17086	-1261	2282	540	-2633	1486	-1688
17091	-1322	2093	463	-2633	1486	-1688
17096	-1723	1328	434	-2633	1486	-1688
17101	-1600	1635	250	-2633	1486	-1688
17106	-1566	1513	90	-2633	1486	-1688
17111	-1615	1391	178	-2633	1486	-1688
17116	-1688	1210	164	-5452	-1422	-1567
17121	-1829	802	206	-5452	-1422	-1567
17126	-2213	403	273	-5452	-1422	-1567
17131	-2205	753	460	-5452	-1422	-1567
17136	-1461	1049	631	-5452	-1422	-1567
17141	-1123	1110	509	-5452	-1422	-1567
17146	-1337	902	608	-9372	-2732	-1512
17151	-1280	926	747	-9372	-2732	-1512
17156	-1183	916	755	-9372	-2732	-1512
17161	-1194	770	886	-9372	-2732	-1512
17166	-1248	437	1356	-9372	-2732	-1512
17171	-1062	368	1143	-9372	-2732	-1512
17176	-937	305	472	-5241	-1929	-2695
17181	-818	404	489	-5241	-1929	-2695
17186	-689	361	995	-5241	-1929	-2695
17191	-688	768	1154	-5241	-1929	-2695
17196	-825	719	1694	-5241	-1929	-2695
17201	-920	282	2147	-5241	-1929	-2695
17206	-1052	-47	2301	-5241	-1929	-2695
17211	-1115	-446	2036	-2510	-980	298
17216	-1233	-836	2220	-2510	-980	298
17221	-1128	-2030	1621	-2510	-980	298
17226	-678	-2633	1396	-2510	-980	298
17231	-1305	-1429	1113	-2510	-980	298
17236	-1003	-1115	1339	-2510	-980	298
