time	accelerometer_x	accelerometer_y	accelerometer_z	gyroscope_x	gyroscope_y	gyroscope_z	
1	2244	27	-123	-1759	9561	-9678
6	2231	32	-118	-292	10032	-9137
11	2239	32	-111	-292	10032	-9137
16	2230	25	-107	-292	10032	-9137
21	2228	21	-106	-292	10032	-9137
26	2222	27	-111	-292	10032	-9137
31	2221	20	-82	-292	10032	-9137
36	2210	18	-92	-10380	-6157	3298
41	2217	21	-104	-10380	-6157	3298
46	2204	3	-104	-10380	-6157	3298
51	-14941	-2649	-4476	-10380	-6157	3298
56	270	-438	-12	-10380	-6157	3298
61	-333	-1478	1744	-10380	-6157	3298
66	-876	716	5250	-3754	-355	-1518
71	-1578	1222	3345	-3754	-355	-1518
76	-3547	9142	5820	-3754	-355	-1518
81	778	3337	3456	-3754	-355	-1518
86	2986	2403	4957	-3754	-355	-1518
105	-650	-1081	899	-3754	-355	-1518
106	-804	-910	365	-3754	-355	-1518
111	-944	-605	-744	-3944	-3249	-606
116	-887	-735	-602	-3944	-3249	-606
121	-1060	-732	284	-3944	-3249	-606
126	-1009	-1194	1084	-10709	-1833	-688
131	-854	-1376	1634	-10709	-1833	-688
136	-843	-905	1510	-10709	-1833	-688
141	-879	-123	987	-10709	-1833	-688
146	-809	80	543	-10709	-1833	-688
151	-840	-252	759	-10709	-1833	-688
156	-569	-491	990	-10709	-1833	-688
161	44	-733	996	-1869	-2238	-4307
166	704	-947	787	-1869	-2238	-4307
171	1164	-1042	745	-1869	-2238	-4307
176	1485	-1380	824	-1869	-2238	-4307
181	1374	-1568	852	-1869	-2238	-4307
186	1561	-1642	1111	-1869	-2238	-4307
191	1798	-1799	1597	561	195	-2399
196	1793	-1818	2003	561	195	-2399
201	1630	-1723	2077	561	195	-2399
206	1682	-1907	1839	561	195	-2399
211	1812	-2307	1487	561	195	-2399
216	1886	-2430	1281	561	195	-2399
221	1920	-2256	1145	1085	-1589	-658
226	2141	-2284	976	1085	-1589	-658
231	2392	-2626	699	1085	-1589	-658
236	2126	-2820	361	1085	-1589	-658
241	1038	-2510	496	1085	-1589	-658
246	985	-2322	786	1085	-1589	-658
251	1028	-2074	1088	-253	-1650	-263
256	1046	-1679	1315	-253	-1650	-263
261	956	-1420	1400	-253	-1650	-263
266	1066	-1301	1115	-253	-1650	-263
271	959	-1455	800	-253	-1650	-263
276	979	-1727	712	-253	-1650	-263
281	1210	-2008	773	130	-1095	1052
286	1240	-2034	920	130	-1095	1052
291	1312	-2169	1152	130	-1095	1052
296	1487	-2564	1347	130	-1095	1052
301	1766	-3301	1635	130	-1095	1052
306	1935	-4029	2025	130	-1095	1052
311	1944	-4441	2296	130	-1095	1052
316	2062	-4607	2399	-454	975	4479
321	2272	-4749	2476	-454	975	4479
326	2493	-5134	2567	-454	975	4479
331	2570	-5759	2475	-454	975	4479
336	2800	-6336	2436	-454	975	4479
341	2988	-6748	2515	-454	975	4479
346	3083	-7172	2742	1511	4735	10369
351	3331	-7802	3110	1511	4735	10369
356	3682	-7750	3302	1511	4735	10369
361	4025	-7267	3115	1511	4735	10369
366	4342	-6398	2582	1511	4735	10369
371	4626	-5091	1977	1511	4735	10369
376	4691	-3679	1516	91	6172	11298
381	4525	-2508	1131	91	6172	11298
386	3573	-1705	1122	91	6172	11298
391	3367	-1053	670	91	6172	11298
396	2784	-570	129	91	6172	11298
401	2211	-285	-12	91	6172	11298
406	2061	-115	-78	-1229	5709	11550
411	2002	-46	-113	-1229	5709	11550
416	1986	-35	-123	-1229	5709	11550
421	1972	-36	-106	-1229	5709	11550
426	1974	-35	-118	-1229	5709	11550
431	1974	-35	-92	-1229	5709	11550
436	1975	-33	-98	-2266	4422	11845
441	1972	-37	-98	-2266	4422	11845
446	1974	-36	-100	-2266	4422	11845
451	1974	-37	-103	-2266	4422	11845
456	1972	-30	-102	-2266	4422	11845
461	1969	-21	-113	-2266	4422	11845
466	1971	-25	-102	-2266	4422	11845
471	1967	-20	-108	-2967	2533	12469
476	1965	-31	-101	-2967	2533	12469
481	1962	-19	-104	-2967	2533	12469
486	1950	-20	-123	-2967	2533	12469
491	1957	-21	-104	-2967	2533	12469
496	1966	-13	-108	-2967	2533	12469
501	1956	-27	-114	-3175	138	12647
506	1958	-16	-105	-3175	138	12647
511	1956	-17	-112	-3175	138	12647
516	1960	-13	-108	-3175	138	12647
521	1960	-11	-106	-3175	138	12647
526	1960	-14	-120	-3175	138	12647
531	1954	-10	-113	-2877	-2164	12480
536	1956	-16	-120	-2877	-2164	12480
541	1959	-10	-117	-2877	-2164	12480
546	1958	-12	-114	-2877	-2164	12480
551	1960	-19	-111	-2877	-2164	12480
556	1955	-17	-115	-2877	-2164	12480
561	1958	-17	-124	-2136	-3943	11971
566	1949	-15	-124	-2136	-3943	11971
571	1951	-15	-117	-2136	-3943	11971
576	1957	-12	-132	-2136	-3943	11971
581	1953	-26	-112	-2136	-3943	11971
586	1945	-26	-129	-2136	-3943	11971
591	1942	-26	-123	-25904	-4866	4139
596	1942	-26	-139	-25904	-4866	4139
601	1950	-32	-141	-25904	-4866	4139
606	1932	-17	-143	-25904	-4866	4139
611	1937	-28	-133	-25904	-4866	4139
616	1899	-227	1	-25904	-4866	4139
621	3811	-30426	-8013	-25904	-4866	4139
626	234	-5623	-2026	-2718	1537	638
631	217	475	-2045	-2718	1537	638
636	-294	2329	-58	-2718	1537	638
641	-116	990	-1386	-2718	1537	638
646	-517	1825	-1086	-2718	1537	638
651	-2956	3696	1416	-2718	1537	638
656	-1757	2977	2179	-5266	2242	282
661	478	2080	159	-5266	2242	282
666	359	1242	-1017	-5266	2242	282
671	411	160	-2310	-5266	2242	282
676	579	-771	-2458	-5266	2242	282
681	361	-1443	-2321	-5266	2242	282
686	405	-711	-2033	-2526	1015	2049
691	864	897	-1984	-2526	1015	2049
696	722	1479	-2370	-2526	1015	2049
701	691	1355	-2360	-2526	1015	2049
706	836	1023	-1805	-2526	1015	2049
711	1048	431	-1221	-2526	1015	2049
716	1248	137	-1189	-6341	621	5214
721	1302	90	-1274	-6341	621	5214
726	1075	240	-1398	-6341	621	5214
731	981	565	-1386	-6341	621	5214
736	1043	721	-1480	-6341	621	5214
741	1165	798	-1408	-6341	621	5214
746	859	1091	-1051	665	2034	2030
751	721	1645	-559	665	2034	2030
756	1047	2309	-348	665	2034	2030
761	2098	2559	-177	665	2034	2030
766	3819	3324	55	665	2034	2030
771	4464	3790	-231	665	2034	2030
776	3916	4169	-948	665	2034	2030
781	1802	3744	-2016	-399	185	1249
786	1481	3165	-2552	-399	185	1249
791	1727	2788	-2564	-399	185	1249
796	1739	2414	-2205	-399	185	1249
801	1645	2131	-1790	-399	185	1249
806	1725	2151	-1532	-399	185	1249
811	1618	2709	-1442	180	22	-1597
816	1610	3285	-1444	180	22	-1597
821	1568	3834	-1474	180	22	-1597
826	1512	4478	-1537	180	22	-1597
831	1540	5115	-1615	180	22	-1597
836	1590	5771	-1587	180	22	-1597
841	1852	5881	-1649	504	-1313	-4608
846	2151	5472	-1971	504	-1313	-4608
851	2448	5102	-2462	504	-1313	-4608
856	2731	5091	-2829	504	-1313	-4608
861	2857	5205	-2906	504	-1313	-4608
866	2842	5410	-2896	504	-1313	-4608
871	2778	5805	-2685	141	-4920	-10975
876	3068	6308	-2422	141	-4920	-10975
881	3475	6655	-2466	141	-4920	-10975
886	3818	6728	-2873	141	-4920	-10975
891	4158	6365	-3414	141	-4920	-10975
896	4686	5622	-3704	141	-4920	-10975
901	5175	4650	-3483	241	-7133	-12663
906	5362	3491	-2818	241	-7133	-12663
911	5035	2457	-1832	241	-7133	-12663
916	3473	916	-788	241	-7133	-12663
921	2694	-57	-18	241	-7133	-12663
926	2567	-78	-88	241	-7133	-12663
931	2561	-77	-89	241	-7133	-12663
936	2557	-68	-91	-1385	-6621	-12908
941	2551	-62	-81	-1385	-6621	-12908
946	2551	-56	-104	-1385	-6621	-12908
951	2539	-63	-115	-1385	-6621	-12908
956	2538	-61	-104	-1385	-6621	-12908
961	2541	-63	-108	-1385	-6621	-12908
966	2531	-62	-93	-2658	-4872	-13599
971	2533	-66	-109	-2658	-4872	-13599
976	2524	-59	-116	-2658	-4872	-13599
981	2525	-67	-115	-2658	-4872	-13599
986	2520	-70	-115	-2658	-4872	-13599
991	2510	-67	-117	-2658	-4872	-13599
996	2512	-65	-116	-3393	-2196	-14050
1001	2508	-62	-121	-3393	-2196	-14050
1006	2501	-56	-116	-3393	-2196	-14050
1011	2496	-61	-125	-3393	-2196	-14050
1016	2478	-65	-121	-3393	-2196	-14050
1021	2488	-53	-132	-3393	-2196	-14050
1026	2478	-54	-134	-3439	988	-14267
1031	2480	-63	-144	-3439	988	-14267
1036	2475	-60	-145	-3439	988	-14267
1041	2465	-51	-159	-3439	988	-14267
1046	2465	-46	-139	-3439	988	-14267
1051	2463	-39	-140	-3439	988	-14267
1056	2458	-36	-135	-2676	3843	-13747
1061	2464	-34	-142	-2676	3843	-13747
1066	2459	-28	-142	-2676	3843	-13747
1071	2463	-10	-144	-2676	3843	-13747
1076	2458	-12	-131	-2676	3843	-13747
1081	2457	-5	-138	-2676	3843	-13747
1086	2451	-1	-148	-2676	3843	-13747
1091	2457	1	-143	-1626	5626	-13157
1096	2453	5	-129	-1626	5626	-13157
1101	2463	8	-120	-1626	5626	-13157
1106	2460	4	-120	-1626	5626	-13157
1111	2460	-2	-123	-1626	5626	-13157
1116	2456	8	-123	-1626	5626	-13157
1121	2449	11	-108	-14611	-1293	7656
1126	2439	5	-120	-14611	-1293	7656
1131	2449	8	-109	-14611	-1293	7656
1136	2431	2	-114	-14611	-1293	7656
1141	2424	-3	-104	-14611	-1293	7656
1146	-17619	-11324	-5151	-14611	-1293	7656
1151	-828	-1255	-1657	-4541	-8296	-2355
1156	1593	-220	165	-4541	-8296	-2355
1161	1313	-58	906	-4541	-8296	-2355
1166	1284	85	1234	-4541	-8296	-2355
1171	-1582	5966	8898	-4541	-8296	-2355
1176	-1115	6909	1040	-4541	-8296	-2355
1181	1075	4436	4532	-2326	-492	1205
1186	2491	1644	5372	-2326	-492	1205
1191	1322	-1181	4944	-2326	-492	1205
1196	-139	-3650	4366	-2326	-492	1205
1201	-1127	-2317	3161	-2326	-492	1205
1206	-1671	-1018	1293	-2326	-492	1205
1211	-1250	-483	-385	-2467	-2165	909
1216	-1218	2	-730	-2467	-2165	909
1221	-1231	-387	-188	-2467	-2165	909
1226	-1086	-1094	678	-2467	-2165	909
1231	-871	-1540	1684	-2467	-2165	909
1236	-618	-1297	2752	-2467	-2165	909
1241	-395	-499	3387	-2467	-2165	909
1246	-142	3	3133	-10451	42	-1316
1251	195	260	2450	-10451	42	-1316
1256	225	213	1713	-10451	42	-1316
1261	268	-119	1341	-10451	42	-1316
1266	268	-261	944	-10451	42	-1316
1271	308	-628	828	-10451	42	-1316
1276	398	-1018	603	-1089	-3191	-3896
1281	661	-1399	396	-1089	-3191	-3896
1286	1257	-1434	202	-1089	-3191	-3896
1291	1952	-1050	706	-1089	-3191	-3896
1296	2277	-1003	1869	-1089	-3191	-3896
1301	2073	-1117	2236	-1089	-3191	-3896
1306	1552	-1167	2692	-3930	504	-2803
1311	1001	-1661	2730	-3930	504	-2803
1316	501	-2094	2131	-3930	504	-2803
1321	253	-2513	1320	-3930	504	-2803
1326	318	-2809	666	-3930	504	-2803
1331	581	-2811	437	-3930	504	-2803
1336	872	-2790	268	-994	-1376	-1991
1341	1355	-2709	12	-994	-1376	-1991
1346	1863	-2361	-208	-994	-1376	-1991
1351	2108	-1961	-264	-994	-1376	-1991
1356	1708	-1713	-14	-994	-1376	-1991
1361	943	-1694	382	-994	-1376	-1991
1366	921	-2238	584	716	-493	-556
1371	1079	-2941	747	716	-493	-556
1376	1312	-3332	924	716	-493	-556
1381	1521	-3367	1135	716	-493	-556
1386	1574	-3311	1381	716	-493	-556
1391	1623	-3221	1564	716	-493	-556
1396	1554	-3346	1802	716	-493	-556
1401	1560	-3729	1934	932	248	2596
1406	1422	-4263	1937	932	248	2596
1411	1311	-5057	1721	932	248	2596
1416	1457	-5538	1181	932	248	2596
1421	1823	-5486	745	932	248	2596
1426	2173	-5222	719	932	248	2596
1431	2469	-5125	1150	64	1978	5832
1436	2543	-5163	1959	64	1978	5832
1441	2583	-5164	2558	64	1978	5832
1446	2687	-5344	2655	64	1978	5832
1451	2699	-5626	2492	64	1978	5832
1456	2868	-5997	2109	64	1978	5832
1461	3051	-6444	1964	9	3913	9571
1466	3498	-6785	1979	9	3913	9571
1471	3859	-6153	2026	9	3913	9571
1476	3897	-5183	1994	9	3913	9571
1481	3913	-4046	1918	9	3913	9571
1486	3840	-3065	1741	9	3913	9571
1491	3784	-2605	1517	-2490	4538	11876
1496	3611	-2291	1191	-2490	4538	11876
1501	3303	-1944	811	-2490	4538	11876
1506	2815	-1313	545	-2490	4538	11876
1511	2465	-748	350	-2490	4538	11876
1516	2158	-282	223	-2490	4538	11876
1521	1970	-81	2	-3350	2365	12399
1526	1936	-23	-110	-3350	2365	12399
1531	1942	-31	-97	-3350	2365	12399
1536	1927	-28	-110	-3350	2365	12399
1541	1935	-24	-107	-3350	2365	12399
1546	1935	-26	-110	-3350	2365	12399
1551	1937	-20	-112	-3350	2365	12399
1556	1932	-24	-114	-3506	-195	12491
1561	1939	-36	-104	-3506	-195	12491
1566	1933	-26	-98	-3506	-195	12491
1571	1938	-16	-100	-3506	-195	12491
1576	1945	-27	-105	-3506	-195	12491
1581	1927	-23	-116	-3506	-195	12491
1586	1932	-15	-115	-3058	-2696	12242
1591	1933	-14	-101	-3058	-2696	12242
1596	1927	-19	-115	-3058	-2696	12242
1601	1929	-17	-121	-3058	-2696	12242
1606	1926	-13	-116	-3058	-2696	12242
1611	1922	-18	-120	-3058	-2696	12242
1616	1922	-10	-104	-2149	-4552	11580
1621	1921	-8	-123	-2149	-4552	11580
1626	1932	-7	-116	-2149	-4552	11580
1631	1919	1	-132	-2149	-4552	11580
1636	1921	-1	-134	-2149	-4552	11580
1641	1924	3	-130	-2149	-4552	11580
1646	1923	8	-125	-1007	-5567	11243
1651	1915	2	-100	-1007	-5567	11243
1656	1921	11	-120	-1007	-5567	11243
1661	1903	3	-130	-1007	-5567	11243
1666	1908	-8	-128	-1007	-5567	11243
1671	1904	4	-126	-1007	-5567	11243
1676	1912	0	-124	101	-5745	11060
1681	1910	0	-118	101	-5745	11060
1686	1904	-2	-147	101	-5745	11060
1691	1902	-8	-146	101	-5745	11060
1696	1900	-3	-143	101	-5745	11060
1701	1894	-6	-145	101	-5745	11060
1706	1894	-11	-149	101	-5745	11060
1711	1883	-7	-166	877	-5608	10994
1716	1882	-5	-159	877	-5608	10994
1721	1875	-8	-151	877	-5608	10994
1726	1870	-10	-154	877	-5608	10994
1731	1866	-7	-182	877	-5608	10994
1736	1857	-13	-187	877	-5608	10994
1741	3121	-32539	-17800	6673	4298	-335
1746	-1134	-1307	193	6673	4298	-335
1751	-196	193	-531	6673	4298	-335
1756	-444	250	-541	6673	4298	-335
1761	-861	718	-252	6673	4298	-335
1766	-1160	-98	-903	6673	4298	-335
1771	-1212	-2277	-2893	-2256	1269	-1945
1776	-1576	-1077	-738	-2256	1269	-1945
1781	-588	-884	-1925	-2256	1269	-1945
1786	-590	-299	-2995	-2256	1269	-1945
1791	-1490	738	-3213	-2256	1269	-1945
1796	-1428	1794	-3707	-2256	1269	-1945
1801	-1279	715	-2637	-2850	2530	-1691
1806	-1277	25	-1856	-2850	2530	-1691
1811	-853	-147	-1474	-2850	2530	-1691
1816	-688	-195	-1098	-2850	2530	-1691
1821	-540	-349	-579	-2850	2530	-1691
1826	-358	-654	-574	-2850	2530	-1691
1831	-184	-728	-781	-4989	3717	672
1836	-116	-776	-920	-4989	3717	672
1841	-65	-619	-1088	-4989	3717	672
1846	114	-487	-1374	-4989	3717	672
1851	375	-323	-1513	-4989	3717	672
1856	681	-284	-1608	-4989	3717	672
1861	816	-105	-1622	-4989	3717	672
1866	856	261	-1799	81	2121	2375
1871	896	638	-2046	81	2121	2375
1876	879	815	-2235	81	2121	2375
1881	1200	1027	-2388	81	2121	2375
1886	1782	935	-2250	81	2121	2375
1891	2535	1073	-2663	81	2121	2375
1896	2927	919	-3014	-2814	-309	1432
1901	2521	653	-3136	-2814	-309	1432
1906	2031	654	-3291	-2814	-309	1432
1911	1793	975	-3410	-2814	-309	1432
1916	1417	1206	-3257	-2814	-309	1432
1921	1196	1269	-2926	-2814	-309	1432
1926	968	1278	-2552	67	2275	1797
1931	887	1301	-2051	67	2275	1797
1936	1012	1135	-1727	67	2275	1797
1941	1146	930	-1647	67	2275	1797
1946	1323	817	-1786	67	2275	1797
1951	1557	821	-2137	67	2275	1797
1956	1772	931	-2712	921	-934	-1174
1961	2138	1374	-3320	921	-934	-1174
1966	2369	2198	-4028	921	-934	-1174
1971	2287	2872	-4859	921	-934	-1174
1976	2097	3173	-5492	921	-934	-1174
1981	1954	2821	-5583	921	-934	-1174
1986	2129	2303	-5554	-1106	-4291	-2241
1991	2405	1849	-5520	-1106	-4291	-2241
1996	2566	1718	-5455	-1106	-4291	-2241
2001	2656	1785	-5248	-1106	-4291	-2241
2006	2779	2092	-4943	-1106	-4291	-2241
2011	3043	2874	-4905	-1106	-4291	-2241
2016	3394	3807	-5374	-1106	-4291	-2241
2021	3646	4399	-6076	-907	-11659	-5614
2026	3812	4192	-7183	-907	-11659	-5614
2031	4260	3547	-7731	-907	-11659	-5614
2036	4823	2521	-7506	-907	-11659	-5614
2041	5274	1751	-6446	-907	-11659	-5614
2046	5254	1105	-5004	-907	-11659	-5614
2051	5834	827	-3542	-5158	-12275	-7196
2056	5582	426	-2483	-5158	-12275	-7196
2061	5607	234	-1834	-5158	-12275	-7196
2066	5235	25	-1236	-5158	-12275	-7196
2071	3450	-236	-193	-5158	-12275	-7196
2076	2654	-91	114	-5158	-12275	-7196
2081	2439	-68	35	-7326	-8220	-11195
2086	2371	-97	-74	-7326	-8220	-11195
2091	2361	-103	-88	-7326	-8220	-11195
2096	2351	-97	-94	-7326	-8220	-11195
2101	2349	-96	-91	-7326	-8220	-11195
2106	2334	-104	-102	-7326	-8220	-11195
2111	2324	-97	-104	-8379	-1799	-13611
2116	2308	-96	-126	-8379	-1799	-13611
2121	2294	-91	-122	-8379	-1799	-13611
2126	2277	-88	-123	-8379	-1799	-13611
2131	2271	-83	-127	-8379	-1799	-13611
2136	2255	-77	-141	-8379	-1799	-13611
2141	2245	-70	-132	-7866	5334	-12680
2146	2238	-57	-154	-7866	5334	-12680
2151	2225	-41	-157	-7866	5334	-12680
2156	2222	-29	-159	-7866	5334	-12680
2161	2222	-18	-165	-7866	5334	-12680
2166	2221	-9	-158	-7866	5334	-12680
2171	2220	10	-168	-7866	5334	-12680
2176	2214	14	-152	-6267	10256	-9339
2181	2225	29	-161	-6267	10256	-9339
2186	2224	25	-165	-6267	10256	-9339
2191	2241	42	-155	-6267	10256	-9339
2196	2234	48	-155	-6267	10256	-9339
2201	2241	63	-150	-6267	10256	-9339
2206	2245	62	-142	-4671	12729	-5613
2211	2242	63	-131	-4671	12729	-5613
2216	2248	62	-126	-4671	12729	-5613
2221	2251	62	-114	-4671	12729	-5613
2226	2251	64	-104	-4671	12729	-5613
2231	2254	56	-92	-4671	12729	-5613
2236	2261	59	-92	-3959	13588	-1931
2241	2264	60	-91	-3959	13588	-1931
2246	2267	66	-78	-3959	13588	-1931
2251	2259	56	-73	-3959	13588	-1931
2256	2253	58	-67	-3959	13588	-1931
2261	2246	61	-54	-3959	13588	-1931
2266	2246	56	-64	-13620	-2127	1249
2271	2233	42	-63	-13620	-2127	1249
2276	2224	44	-53	-13620	-2127	1249
2281	-2934	8405	18815	-13620	-2127	1249
2286	-1123	-472	2624	-13620	-2127	1249
2291	209	-657	1002	-13620	-2127	1249
2296	-12	791	-199	-1353	-1582	-1940
2301	-1335	-652	1325	-1353	-1582	-1940
2306	-1967	-967	1964	-1353	-1582	-1940
2311	-1847	-492	1139	-1353	-1582	-1940
2316	-1924	923	-368	-1353	-1582	-1940
2321	-1530	762	-1081	-1353	-1582	-1940
2326	-663	-710	9	-1353	-1582	-1940
2331	-1165	-601	-281	-3186	-2691	-1280
2336	-979	-853	-647	-3186	-2691	-1280
2341	-838	-1324	-501	-3186	-2691	-1280
2346	-766	-1491	-423	-3186	-2691	-1280
2351	-668	-1195	-480	-3186	-2691	-1280
2356	-466	-734	-390	-3186	-2691	-1280
2361	-177	-394	-81	-3807	-1507	-3371
2366	121	-197	284	-3807	-1507	-3371
2371	36	8	362	-3807	-1507	-3371
2376	302	19	484	-3807	-1507	-3371
2381	356	-17	514	-3807	-1507	-3371
2386	397	-106	503	-3807	-1507	-3371
2391	587	-144	401	-2090	-1487	-7108
2396	812	-160	349	-2090	-1487	-7108
2401	1017	-241	353	-2090	-1487	-7108
2406	1291	-311	353	-2090	-1487	-7108
2411	1550	-520	439	-2090	-1487	-7108
2416	1918	-970	359	-2090	-1487	-7108
2421	2542	-1827	196	420	-2313	-2692
2426	3407	-3796	882	420	-2313	-2692
2431	3889	-4338	537	420	-2313	-2692
2436	3748	-4804	669	420	-2313	-2692
2441	2507	-4465	1392	420	-2313	-2692
2446	2193	-4075	2072	420	-2313	-2692
2451	2255	-3927	2231	550	-1168	-770
2456	2289	-3992	2419	550	-1168	-770
2461	2189	-3883	2315	550	-1168	-770
2466	2255	-4000	2032	550	-1168	-770
2471	2323	-4126	1844	550	-1168	-770
2476	2324	-4087	1765	550	-1168	-770
2481	2313	-3966	1856	550	-1168	-770
2486	2194	-3937	2115	461	502	1682
2491	2076	-4078	2432	461	502	1682
2496	1900	-4300	2566	461	502	1682
2501	1868	-4599	2638	461	502	1682
2506	1987	-4740	2487	461	502	1682
2511	2089	-4820	2337	461	502	1682
2516	2190	-4892	2176	37	1440	6257
2521	2250	-4905	2052	37	1440	6257
2526	2464	-4877	1880	37	1440	6257
2531	2645	-5051	1880	37	1440	6257
2536	2908	-5307	2058	37	1440	6257
2541	2997	-5376	2369	37	1440	6257
2546	3016	-5275	2676	2280	4057	8986
2551	3236	-5197	2722	2280	4057	8986
2556	3560	-5020	2441	2280	4057	8986
2561	3520	-4675	2173	2280	4057	8986
2566	3664	-4457	1714	2280	4057	8986
2571	3873	-4231	1270	2280	4057	8986
2576	4049	-4205	1161	-1311	5624	12027
2581	4154	-3934	1166	-1311	5624	12027
2586	3976	-3331	1247	-1311	5624	12027
2591	3892	-2638	1252	-1311	5624	12027
2596	3169	-1460	902	-1311	5624	12027
2601	2549	-433	429	-1311	5624	12027
2606	2243	-48	-39	-2372	4182	12710
2611	2173	-27	-115	-2372	4182	12710
2616	2181	-25	-117	-2372	4182	12710
2621	2166	-24	-103	-2372	4182	12710
2626	2167	-26	-115	-2372	4182	12710
2631	2170	-29	-101	-2372	4182	12710
2636	2175	-28	-94	-2372	4182	12710
2641	2158	-32	-99	-2994	2129	13025
2646	2159	-28	-108	-2994	2129	13025
2651	2156	-23	-106	-2994	2129	13025
2656	2163	-33	-103	-2994	2129	13025
2661	2167	-26	-115	-2994	2129	13025
2666	2164	-23	-108	-2994	2129	13025
2671	2161	-29	-102	-3133	-320	13218
2676	2162	-23	-103	-3133	-320	13218
2681	2153	-24	-100	-3133	-320	13218
2686	2158	-21	-109	-3133	-320	13218
2691	2156	-22	-97	-3133	-320	13218
2696	2161	-5	-107	-3133	-320	13218
2701	2159	-25	-107	-2622	-2640	13028
2706	2159	-23	-95	-2622	-2640	13028
2711	2154	-26	-105	-2622	-2640	13028
2716	2154	-22	-101	-2622	-2640	13028
2721	2156	-16	-114	-2622	-2640	13028
2726	2157	-8	-116	-2622	-2640	13028
2731	2157	-22	-110	-1808	-4295	12549
2736	2160	-23	-103	-1808	-4295	12549
2741	2154	-19	-117	-1808	-4295	12549
2746	2159	-21	-124	-1808	-4295	12549
2751	2154	-13	-117	-1808	-4295	12549
2756	2162	-18	-122	-1808	-4295	12549
2761	2144	-18	-127	-737	-5091	12163
2766	2145	-20	-138	-737	-5091	12163
2771	2152	-3	-129	-737	-5091	12163
2776	2140	-19	-139	-737	-5091	12163
2781	2145	-18	-141	-737	-5091	12163
2786	2131	-13	-134	-737	-5091	12163
2791	2124	-18	-138	-737	-5091	12163
2796	2124	-32	-153	222	-5060	11979
2801	2114	-13	-149	222	-5060	11979
2806	2102	-20	-148	222	-5060	11979
2811	2098	-15	-151	222	-5060	11979
2816	2105	-21	-147	222	-5060	11979
2821	2080	-17	-145	222	-5060	11979
2826	-10180	-24859	-3378	1638	5671	994
2831	-361	-1022	-326	1638	5671	994
2836	-525	-84	-167	1638	5671	994
2841	-902	695	-3394	1638	5671	994
2846	100	63	-2173	1638	5671	994
2851	424	-3093	-156	1638	5671	994
2856	-1927	-7980	-2703	-3634	2261	260
2861	-716	-4589	-1505	-3634	2261	260
2866	1513	-1784	-1496	-3634	2261	260
2871	1659	3172	-2544	-3634	2261	260
2876	463	998	-3050	-3634	2261	260
2881	-940	610	-2015	-3634	2261	260
2886	-447	1449	-1425	-1668	3432	-1110
2891	-343	1479	-962	-1668	3432	-1110
2896	-616	1164	-709	-1668	3432	-1110
2901	-486	1342	-952	-1668	3432	-1110
2906	-325	1377	-1206	-1668	3432	-1110
2911	1	930	-1402	-1668	3432	-1110
2916	96	151	-1511	-4788	3789	1004
2921	535	-430	-1444	-4788	3789	1004
2926	704	-513	-1407	-4788	3789	1004
2931	537	-66	-1863	-4788	3789	1004
2936	654	422	-2257	-4788	3789	1004
2941	1172	477	-2138	-4788	3789	1004
2946	1636	490	-1966	-4788	3789	1004
2951	2204	441	-1866	175	2970	1016
2956	2707	663	-1984	175	2970	1016
2961	3531	1049	-2600	175	2970	1016
2966	2882	946	-3124	175	2970	1016
2971	2118	708	-3475	175	2970	1016
2976	2099	600	-3729	175	2970	1016
2981	2120	621	-3595	1198	2232	2018
2986	1805	615	-3202	1198	2232	2018
2991	1657	778	-2673	1198	2232	2018
2996	1646	957	-2062	1198	2232	2018
3001	1574	1109	-1618	1198	2232	2018
3006	1916	1250	-1472	1198	2232	2018
3011	2190	1562	-1908	312	-356	-922
3016	2492	1915	-2797	312	-356	-922
3021	2472	2032	-3801	312	-356	-922
3026	2222	1963	-4421	312	-356	-922
3031	2050	1712	-4885	312	-356	-922
3036	1918	1459	-4862	312	-356	-922
3041	1980	1339	-4618	-335	-3727	-2243
3046	2033	1520	-4467	-335	-3727	-2243
3051	2210	1906	-4524	-335	-3727	-2243
3056	2433	2292	-4766	-335	-3727	-2243
3061	2640	2375	-5222	-335	-3727	-2243
3066	2759	2154	-5565	-335	-3727	-2243
3071	2842	1849	-5531	1102	-6445	-2025
3076	3119	1747	-5197	1102	-6445	-2025
3081	3188	1451	-5067	1102	-6445	-2025
3086	3375	1492	-5121	1102	-6445	-2025
3091	3612	1596	-5151	1102	-6445	-2025
3096	3936	1770	-5393	1102	-6445	-2025
3101	4399	1960	-5915	1102	-6445	-2025
3106	4285	1704	-6404	-2803	-12846	-3452
3111	4421	1268	-6459	-2803	-12846	-3452
3116	4780	812	-5918	-2803	-12846	-3452
3121	5016	536	-5305	-2803	-12846	-3452
3126	5056	285	-4223	-2803	-12846	-3452
3131	5075	296	-3097	-2803	-12846	-3452
3136	4374	249	-1693	-7428	-10717	-7855
3141	3191	50	-409	-7428	-10717	-7855
3146	2596	-46	73	-7428	-10717	-7855
3151	2467	-25	156	-7428	-10717	-7855
3156	2312	-32	114	-7428	-10717	-7855
3161	2154	-94	-53	-7428	-10717	-7855
3166	2146	-103	-65	-8958	-5505	-11948
3171	2124	-108	-100	-8958	-5505	-11948
3176	2115	-102	-102	-8958	-5505	-11948
3181	2104	-104	-113	-8958	-5505	-11948
3186	2096	-102	-110	-8958	-5505	-11948
3191	2084	-96	-142	-8958	-5505	-11948
3196	2065	-91	-121	-9216	1884	-12846
3201	2053	-74	-136	-9216	1884	-12846
3206	2033	-66	-142	-9216	1884	-12846
3211	2027	-57	-146	-9216	1884	-12846
3216	2024	-43	-143	-9216	1884	-12846
3221	2012	-44	-153	-9216	1884	-12846
3226	2016	-24	-169	-7916	8472	-10095
3231	2004	-13	-164	-7916	8472	-10095
3236	1999	0	-169	-7916	8472	-10095
3241	2010	16	-151	-7916	8472	-10095
3246	2000	22	-161	-7916	8472	-10095
3251	2007	42	-142	-7916	8472	-10095
3256	2007	37	-143	-7916	8472	-10095
3261	2019	53	-155	-6487	11991	-5485
3266	2015	56	-134	-6487	11991	-5485
3271	2028	70	-140	-6487	11991	-5485
3276	2032	64	-133	-6487	11991	-5485
3281	2031	65	-120	-6487	11991	-5485
3286	2036	67	-114	-6487	11991	-5485
3291	2050	78	-103	-5825	13207	-888
3296	2051	72	-110	-5825	13207	-888
3301	2051	66	-100	-5825	13207	-888
3306	2051	71	-79	-5825	13207	-888
3311	2054	65	-84	-5825	13207	-888
3316	2053	61	-69	-5825	13207	-888
3321	2051	55	-68	-6252	12622	3789
3326	2046	49	-65	-6252	12622	3789
3331	2047	41	-52	-6252	12622	3789
3336	2045	42	-51	-6252	12622	3789
3341	2035	48	-36	-6252	12622	3789
3346	2040	43	-34	-6252	12622	3789
3351	2024	42	-36	-26154	-11057	-5440
3356	2015	41	-21	-26154	-11057	-5440
3361	2014	40	-21	-26154	-11057	-5440
3366	2003	35	-33	-26154	-11057	-5440
3371	1997	20	-41	-26154	-11057	-5440
3376	-6139	8354	-13895	-26154	-11057	-5440
3381	-489	-583	52	-5065	2246	-1079
3386	495	-4019	1201	-5065	2246	-1079
3391	613	-3978	550	-5065	2246	-1079
3396	-1059	-4516	-217	-5065	2246	-1079
3401	-2560	-6329	2240	-5065	2246	-1079
3406	-47	-4390	3619	-5065	2246	-1079
3411	1824	-3592	3520	-5065	2246	-1079
3416	2430	-3987	2703	-3392	3596	-634
3421	1738	-3373	1431	-3392	3596	-634
3426	1084	-2833	175	-3392	3596	-634
3431	576	-2244	-663	-3392	3596	-634
3436	-15	-1442	-1336	-3392	3596	-634
3441	-209	-660	-1749	-3392	3596	-634
3446	15	-232	-2019	2108	490	-2122
3451	172	-331	-2244	2108	490	-2122
3456	294	-896	-2371	2108	490	-2122
3461	229	-1524	-2667	2108	490	-2122
3466	60	-1941	-2610	2108	490	-2122
3471	15	-1895	-2176	2108	490	-2122
3476	51	-1482	-1724	-974	-1560	-2519
3481	160	-1052	-1373	-974	-1560	-2519
3486	383	-918	-1192	-974	-1560	-2519
3491	599	-1095	-1358	-974	-1560	-2519
3496	851	-1405	-1296	-974	-1560	-2519
3501	986	-1806	-855	-974	-1560	-2519
3506	999	-2144	-673	-399	-1559	-2775
3511	1097	-2103	-581	-399	-1559	-2775
3516	1179	-1885	-562	-399	-1559	-2775
3521	1013	-1367	-471	-399	-1559	-2775
3526	976	-690	-360	-399	-1559	-2775
3531	1106	-161	-405	-399	-1559	-2775
3536	1087	203	-549	1124	-2465	-5381
3541	1300	433	-876	1124	-2465	-5381
3546	1866	270	-1105	1124	-2465	-5381
3551	1843	-92	-1026	1124	-2465	-5381
3556	2063	-756	-805	1124	-2465	-5381
3561	2639	-1393	-648	1124	-2465	-5381
3566	2980	-1830	-621	1124	-2465	-5381
3571	3403	-2593	-670	13	-863	-1606
3576	3259	-2977	-485	13	-863	-1606
3581	1985	-2707	-2	13	-863	-1606
3586	1849	-2501	97	13	-863	-1606
3591	2421	-2219	-121	13	-863	-1606
3596	2512	-2013	-128	13	-863	-1606
3601	2559	-1905	-387	1878	-1362	-2003
3606	2679	-1962	-692	1878	-1362	-2003
3611	2894	-2273	-929	1878	-1362	-2003
3616	2996	-2795	-1012	1878	-1362	-2003
3621	2810	-3199	-737	1878	-1362	-2003
3626	2606	-3456	-485	1878	-1362	-2003
3631	2539	-3476	-374	779	-834	1325
3636	2549	-3481	-286	779	-834	1325
3641	2559	-3714	-195	779	-834	1325
3646	2498	-4220	-251	779	-834	1325
3651	2643	-4983	-401	779	-834	1325
3656	2964	-5753	-646	779	-834	1325
3661	3120	-6156	-838	3409	-392	5098
3666	3118	-5869	-863	3409	-392	5098
3671	3445	-5412	-791	3409	-392	5098
3676	3779	-5506	-751	3409	-392	5098
3681	3888	-5942	-521	3409	-392	5098
3686	4003	-6013	-202	3409	-392	5098
3691	4080	-5821	-78	-130	38	11491
3696	4219	-5849	-235	-130	38	11491
3701	4551	-5818	-535	-130	38	11491
3706	4748	-5589	-674	-130	38	11491
3711	5041	-5428	-565	-130	38	11491
3716	5168	-5590	-128	-130	38	11491
3721	5448	-5374	275	-130	38	11491
3726	5772	-4881	462	1207	674	15743
3731	6240	-3808	468	1207	674	15743
3736	5636	-2148	645	1207	674	15743
3741	4417	-669	267	1207	674	15743
3746	3855	33	7	1207	674	15743
3751	3369	176	-232	1207	674	15743
3756	2964	12	-120	951	1888	15452
3761	2949	-2	-120	951	1888	15452
3766	2947	-19	-122	951	1888	15452
3771	2946	-38	-122	951	1888	15452
3776	2947	-40	-124	951	1888	15452
3781	2941	-53	-123	951	1888	15452
3786	2932	-50	-123	441	2710	15270
3791	2932	-54	-120	441	2710	15270
3796	2940	-55	-114	441	2710	15270
3801	2929	-50	-114	441	2710	15270
3806	2936	-56	-128	441	2710	15270
3811	2929	-54	-133	441	2710	15270
3816	2931	-53	-115	-218	2898	15194
3821	2931	-50	-107	-218	2898	15194
3826	2932	-51	-104	-218	2898	15194
3831	2926	-45	-111	-218	2898	15194
3836	2923	-46	-110	-218	2898	15194
3841	2918	-38	-108	-218	2898	15194
3846	2918	-46	-111	-867	2455	15283
3851	2926	-44	-105	-867	2455	15283
3856	2919	-46	-107	-867	2455	15283
3861	2915	-45	-108	-867	2455	15283
3866	2914	-49	-105	-867	2455	15283
3871	2913	-53	-110	-867	2455	15283
3876	2911	-47	-114	-867	2455	15283
3881	2908	-55	-102	-1288	1506	15292
3886	2919	-50	-107	-1288	1506	15292
3891	2906	-40	-125	-1288	1506	15292
3896	2906	-48	-103	-1288	1506	15292
3901	2904	-53	-125	-1288	1506	15292
3906	2899	-52	-105	-1288	1506	15292
3911	2892	-43	-113	-1430	249	15338
3916	2891	-53	-109	-1430	249	15338
3921	2891	-43	-122	-1430	249	15338
3926	2875	-45	-106	-1430	249	15338
3931	2880	-48	-117	-1430	249	15338
3936	2882	-50	-110	-1430	249	15338
3941	2873	-43	-127	-19230	-1182	-6802
3946	2873	-35	-98	-19230	-1182	-6802
3951	2869	-38	-115	-19230	-1182	-6802
3956	2862	-39	-118	-19230	-1182	-6802
3961	-23400	9346	-311	-19230	-1182	-6802
3966	-549	138	-220	-19230	-1182	-6802
3971	548	-63	-91	-2366	8447	1316
3976	133	160	1166	-2366	8447	1316
3981	-283	296	853	-2366	8447	1316
3986	-1851	-2319	-2997	-2366	8447	1316
3991	-2911	-6382	-693	-2366	8447	1316
3996	-3867	-7262	784	-2366	8447	1316
4001	700	-2734	-3420	-3211	-563	-3259
4006	1233	-188	-5619	-3211	-563	-3259
4011	-247	3897	-7766	-3211	-563	-3259
4016	-1882	2293	-5023	-3211	-563	-3259
4021	-2500	2285	-3095	-3211	-563	-3259
4026	-1611	2229	-1819	-3211	-563	-3259
4031	-1499	1606	-1009	-3211	-563	-3259
4036	-1247	1442	-717	-1378	1971	-4564
4041	-776	1391	-618	-1378	1971	-4564
4046	-329	1085	-536	-1378	1971	-4564
4051	72	384	-781	-1378	1971	-4564
4056	501	-195	-1182	-1378	1971	-4564
4061	792	-600	-1673	-1378	1971	-4564
4066	918	-944	-2433	-5657	-2028	-2211
4071	829	-1157	-3078	-5657	-2028	-2211
4076	797	-1186	-3259	-5657	-2028	-2211
4081	780	-1097	-3081	-5657	-2028	-2211
4086	586	-953	-2776	-5657	-2028	-2211
4091	648	-656	-2502	-5657	-2028	-2211
4096	811	-215	-1970	-3017	2745	-2359
4101	926	279	-1010	-3017	2745	-2359
4106	896	648	-201	-3017	2745	-2359
4111	865	658	-312	-3017	2745	-2359
4116	874	438	-1460	-3017	2745	-2359
4121	930	-10	-2884	-3017	2745	-2359
4126	1139	-107	-3832	-4032	833	-1411
4131	1413	-335	-4088	-4032	833	-1411
4136	1420	-418	-3811	-4032	833	-1411
4141	1232	-234	-3022	-4032	833	-1411
4146	696	199	-1940	-4032	833	-1411
4151	459	743	-926	-4032	833	-1411
4156	375	1341	-80	-4799	6661	-2674
4161	642	1793	477	-4799	6661	-2674
4166	1324	1926	517	-4799	6661	-2674
4171	2261	1898	127	-4799	6661	-2674
4176	2764	1303	-759	-4799	6661	-2674
4181	2778	-97	-2137	-4799	6661	-2674
4186	2295	-1561	-2966	-4799	6661	-2674
4191	1926	-1910	-3238	-7593	3588	2044
4196	1574	-1243	-3532	-7593	3588	2044
4201	1029	-36	-3633	-7593	3588	2044
4206	1030	693	-3227	-7593	3588	2044
4211	1474	757	-2532	-7593	3588	2044
4216	1934	659	-1919	-7593	3588	2044
4221	2243	829	-1618	-205	3899	872
4226	2606	1071	-1317	-205	3899	872
4231	3281	1377	-1119	-205	3899	872
4236	3179	2268	-1201	-205	3899	872
4241	2680	3051	-1320	-205	3899	872
4246	2175	3515	-1708	-205	3899	872
4251	2293	3517	-2076	486	1091	1795
4256	2349	2535	-2483	486	1091	1795
4261	2338	1541	-2717	486	1091	1795
4266	2462	1053	-2862	486	1091	1795
4271	2377	1282	-2837	486	1091	1795
4276	2045	2128	-2684	486	1091	1795
4281	1934	3374	-2288	-371	1001	-2500
4286	1874	4409	-1786	-371	1001	-2500
4291	2014	4778	-1461	-371	1001	-2500
4296	2151	4640	-1190	-371	1001	-2500
4301	2350	4489	-995	-371	1001	-2500
4306	2521	4667	-908	-371	1001	-2500
4311	2899	5177	-849	1706	517	-5494
4316	3125	5875	-842	1706	517	-5494
4321	2911	5884	-1097	1706	517	-5494
4326	3132	5502	-1293	1706	517	-5494
4331	3399	4928	-1436	1706	517	-5494
4336	3538	4640	-1575	1706	517	-5494
4341	3799	4947	-1818	1706	517	-5494
4346	3921	5967	-2242	771	-2607	-11428
4351	3885	7197	-2708	771	-2607	-11428
4356	3973	7711	-2817	771	-2607	-11428
4361	4228	6797	-2426	771	-2607	-11428
4366	4600	4870	-1864	771	-2607	-11428
4371	4271	2896	-1177	771	-2607	-11428
4376	4124	1430	-374	-579	-3250	-12962
4381	3502	826	-503	-579	-3250	-12962
4386	2648	71	-453	-579	-3250	-12962
4391	2164	-41	-166	-579	-3250	-12962
4396	2153	-54	-136	-579	-3250	-12962
4401	2148	-48	-143	-579	-3250	-12962
4406	2143	-55	-112	-1182	-2479	-13095
4411	2139	-48	-129	-1182	-2479	-13095
4416	2139	-38	-117	-1182	-2479	-13095
4421	2136	-41	-123	-1182	-2479	-13095
4426	2132	-39	-143	-1182	-2479	-13095
4431	2129	-37	-119	-1182	-2479	-13095
4436	2125	-40	-131	-1492	-1302	-13133
4441	2133	-33	-122	-1492	-1302	-13133
4446	2124	-39	-137	-1492	-1302	-13133
4451	2125	-41	-125	-1492	-1302	-13133
4456	2122	-32	-129	-1492	-1302	-13133
4461	2114	-33	-139	-1492	-1302	-13133
4466	2117	-38	-124	-1530	-18	-13203
4471	2124	-41	-119	-1530	-18	-13203
4476	2112	-33	-136	-1530	-18	-13203
4481	2116	-34	-135	-1530	-18	-13203
4486	2112	-27	-126	-1530	-18	-13203
4491	2115	-27	-123	-1530	-18	-13203
4496	2106	-29	-141	-1530	-18	-13203
4501	2113	-35	-133	-1280	1162	-13129
4506	2110	-36	-140	-1280	1162	-13129
4511	2104	-24	-145	-1280	1162	-13129
4516	2112	-31	-132	-1280	1162	-13129
4521	2108	-32	-130	-1280	1162	-13129
4526	2105	-26	-134	-1280	1162	-13129
4531	2102	-26	-136	-822	2101	-12962
4536	2103	-27	-129	-822	2101	-12962
4541	2101	-19	-144	-822	2101	-12962
4546	2105	-26	-141	-822	2101	-12962
4551	2102	-6	-126	-822	2101	-12962
4556	2102	-7	-136	-822	2101	-12962
4561	2104	-4	-137	-160	2592	-12874
4566	2101	-5	-146	-160	2592	-12874
4571	2102	-5	-137	-160	2592	-12874
4576	2106	-3	-125	-160	2592	-12874
4581	2097	-5	-114	-160	2592	-12874
4586	2104	6	-133	-160	2592	-12874
4591	2101	-5	-127	-11292	1309	10025
4596	2085	-2	-120	-11292	1309	10025
4601	2091	7	-120	-11292	1309	10025
4606	2086	-3	-127	-11292	1309	10025
4611	2080	5	-107	-11292	1309	10025
4616	-3926	1592	1447	-11292	1309	10025
4621	-245	7457	3488	-2824	-92	2218
4626	964	2829	809	-2824	-92	2218
4631	789	1636	2880	-2824	-92	2218
4636	167	3546	2564	-2824	-92	2218
4641	641	4320	2351	-2824	-92	2218
4646	2735	3471	2182	-2824	-92	2218
4651	3217	3753	1975	-2824	-92	2218
4656	2418	4068	1212	-3733	-986	-1041
4661	1687	3571	1289	-3733	-986	-1041
4666	1333	2812	1836	-3733	-986	-1041
4671	950	1983	2118	-3733	-986	-1041
4676	387	1111	1979	-3733	-986	-1041
4681	-76	430	1681	-3733	-986	-1041
4686	114	-4	1786	-713	-463	2538
4691	256	-863	1937	-713	-463	2538
4696	323	-1372	1779	-713	-463	2538
4701	222	-1056	1227	-713	-463	2538
4706	342	-715	960	-713	-463	2538
4711	752	-570	754	-713	-463	2538
4716	903	-304	467	-1128	-1176	2781
4721	904	-105	531	-1128	-1176	2781
4726	963	141	922	-1128	-1176	2781
4731	1118	338	1271	-1128	-1176	2781
4736	1113	412	1405	-1128	-1176	2781
4741	1029	513	1508	-1128	-1176	2781
4746	955	670	1680	1612	-2111	1681
4751	961	681	1648	1612	-2111	1681
4756	1001	637	1535	1612	-2111	1681
4761	1051	595	1335	1612	-2111	1681
4766	1276	379	1212	1612	-2111	1681
4771	1757	75	1644	1612	-2111	1681
4776	1985	-32	1833	5493	-1854	2780
4781	1559	-84	1736	5493	-1854	2780
4786	1298	-144	1791	5493	-1854	2780
4791	1497	316	2060	5493	-1854	2780
4796	1836	1299	2409	5493	-1854	2780
4801	2195	1793	2320	5493	-1854	2780
4806	2284	2314	1962	5493	-1854	2780
4811	2222	2691	1739	4443	-747	-1244
4816	2191	3108	1837	4443	-747	-1244
4821	2172	3287	2231	4443	-747	-1244
4826	2131	2915	2428	4443	-747	-1244
4831	2111	2383	2458	4443	-747	-1244
4836	1763	1973	2631	4443	-747	-1244
4841	1623	1545	2818	11436	1138	-956
4846	1594	1393	2525	11436	1138	-956
4851	1535	1271	2132	11436	1138	-956
4856	1467	1427	1977	11436	1138	-956
4861	1555	1655	1701	11436	1138	-956
4866	1534	1602	894	11436	1138	-956
4871	1217	1551	75	9837	286	-2156
4876	924	1394	-403	9837	286	-2156
4881	551	1270	-720	9837	286	-2156
4886	293	1155	-681	9837	286	-2156
4891	296	928	-653	9837	286	-2156
4896	264	533	-456	9837	286	-2156
4901	230	275	-140	-2066	398	865
4906	703	115	-224	-2066	398	865
4911	944	1071	-720	-2066	398	865
4916	1145	781	-969	-2066	398	865
4921	975	514	-344	-2066	398	865
4926	638	1309	-5	-2066	398	865
4931	750	1770	61	-2352	2914	1385
4936	1120	1918	142	-2352	2914	1385
4941	1366	1698	200	-2352	2914	1385
4946	1552	1354	-30	-2352	2914	1385
4951	1720	1033	-675	-2352	2914	1385
4956	1818	1006	-1511	-2352	2914	1385
4961	1710	1265	-2111	-2352	2914	1385
4966	1734	1580	-2531	2604	-990	-751
4971	1865	2003	-2888	2604	-990	-751
4976	2658	3244	-2979	2604	-990	-751
4981	3292	4562	-2557	2604	-990	-751
4986	2633	4408	-2191	2604	-990	-751
4991	2015	3677	-2192	2604	-990	-751
4996	1852	3324	-2067	994	-984	-3007
5001	1981	3593	-1898	994	-984	-3007
5006	2129	3887	-1781	994	-984	-3007
5011	2152	4032	-1829	994	-984	-3007
5016	2104	4244	-1841	994	-984	-3007
5021	2246	4695	-1854	994	-984	-3007
5026	2552	5208	-1951	669	-4347	-7365
5031	3066	5579	-2467	669	-4347	-7365
5036	3253	5617	-3345	669	-4347	-7365
5041	3509	5805	-4096	669	-4347	-7365
5049	4074	5900	-3967	669	-4347	-7365
5051	4062	5523	-3690	669	-4347	-7365
5056	3994	4463	-3093	-3756	-7130	-9490
5061	4036	3771	-2483	-3756	-7130	-9490
5066	3901	3183	-1963	-3756	-7130	-9490
5071	4116	3309	-2102	-3756	-7130	-9490
5076	4414	3612	-2686	-3756	-7130	-9490
5081	4535	3518	-2884	-3756	-7130	-9490
5086	4756	3354	-2784	-5418	-6025	-14744
5091	4651	3099	-2099	-5418	-6025	-14744
5096	4330	1902	-1189	-5418	-6025	-14744
5101	3476	168	-439	-5418	-6025	-14744
5106	3182	-212	35	-5418	-6025	-14744
5111	3071	-128	-109	-5418	-6025	-14744
5116	3061	-125	-129	-5418	-6025	-14744
5121	3040	-117	-133	-6121	-476	-15830
5126	3043	-121	-129	-6121	-476	-15830
5131	3026	-104	-136	-6121	-476	-15830
5136	3020	-96	-143	-6121	-476	-15830
5141	3014	-91	-150	-6121	-476	-15830
5146	3004	-82	-147	-6121	-476	-15830
5151	2993	-74	-147	-5249	5301	-14974
5156	2997	-70	-155	-5249	5301	-14974
5161	2986	-69	-163	-5249	5301	-14974
5166	2990	-52	-160	-5249	5301	-14974
5171	2982	-53	-157	-5249	5301	-14974
5176	2980	-38	-175	-5249	5301	-14974
5181	2983	-30	-165	-3357	9116	-12929
5186	2984	-16	-158	-3357	9116	-12929
5191	2985	-16	-168	-3357	9116	-12929
5196	2984	-14	-167	-3357	9116	-12929
5201	2985	-11	-160	-3357	9116	-12929
5206	2990	0	-161	-3357	9116	-12929
5211	2991	7	-162	-1053	10843	-11516
5216	3002	1	-163	-1053	10843	-11516
5221	3003	11	-148	-1053	10843	-11516
5226	3009	10	-154	-1053	10843	-11516
5231	3009	13	-144	-1053	10843	-11516
5236	3016	11	-137	-1053	10843	-11516
5241	3014	11	-124	1156	10779	-11343
5246	3015	5	-128	1156	10779	-11343
5251	3024	14	-116	1156	10779	-11343
5256	3020	-3	-109	1156	10779	-11343
5261	3024	4	-118	1156	10779	-11343
5266	3023	-10	-104	1156	10779	-11343
5271	3011	-12	-98	1156	10779	-11343
5276	3009	-20	-97	-7621	6367	-2862
5281	3002	-16	-119	-7621	6367	-2862
5286	3007	-33	-97	-7621	6367	-2862
5291	3005	-35	-112	-7621	6367	-2862
5296	2990	-41	-108	-7621	6367	-2862
5301	2962	-48	-105	-7621	6367	-2862
5306	-12631	-850	-1818	1980	-8379	-554
5311	-615	-20	71	1980	-8379	-554
5316	1017	67	13	1980	-8379	-554
5321	837	236	-262	1980	-8379	-554
5326	640	314	-500	1980	-8379	-554
5331	545	169	-233	1980	-8379	-554
5336	439	1664	2743	-5754	610	272
5341	-5351	7419	5781	-5754	610	272
5346	-2367	2891	6356	-5754	610	272
5351	898	-431	6204	-5754	610	272
5356	-770	-2915	4469	-5754	610	272
5361	-1682	-2684	2366	-5754	610	272
5366	-2502	-1932	897	-2280	-3346	1394
5371	-2222	-1645	-331	-2280	-3346	1394
5376	-2124	-1351	-799	-2280	-3346	1394
5381	-1847	-1116	-874	-2280	-3346	1394
5386	-1670	-1367	-1030	-2280	-3346	1394
5391	-1300	-1569	-954	-2280	-3346	1394
5396	-811	-1705	-500	-5271	-855	1275
5401	-221	-1325	249	-5271	-855	1275
5406	19	-938	1145	-5271	-855	1275
5411	145	-585	2190	-5271	-855	1275
5416	175	-447	2944	-5271	-855	1275
5421	75	-507	3125	-5271	-855	1275
5426	35	-673	2646	-5271	-855	1275
5431	15	-462	1520	-5436	-3181	-1800
5436	184	113	429	-5436	-3181	-1800
5441	629	772	-176	-5436	-3181	-1800
5446	551	792	-506	-5436	-3181	-1800
5451	626	507	-682	-5436	-3181	-1800
5456	785	141	-745	-5436	-3181	-1800
5461	1083	-248	-442	401	-4147	-1866
5466	1297	-818	-131	401	-4147	-1866
5471	1645	-2032	1154	401	-4147	-1866
5476	2513	-2039	1361	401	-4147	-1866
5481	2942	-2317	1773	401	-4147	-1866
5486	2544	-2433	2062	401	-4147	-1866
5491	1592	-1749	2193	764	-3442	-3130
5496	1120	-1152	1837	764	-3442	-3130
5501	1405	-1085	1395	764	-3442	-3130
5506	1665	-1318	1144	764	-3442	-3130
5511	1612	-1387	856	764	-3442	-3130
5516	1839	-1754	500	764	-3442	-3130
5521	2365	-2118	573	458	-915	676
5526	2693	-2424	1299	458	-915	676
5531	2664	-2817	2305	458	-915	676
5536	2467	-3511	3205	458	-915	676
5541	2344	-5212	4108	458	-915	676
5546	2830	-7411	4809	458	-915	676
5551	2314	-7746	4779	-281	2176	3940
5556	2198	-6390	4046	-281	2176	3940
5561	2711	-5784	3458	-281	2176	3940
5566	2821	-5187	3253	-281	2176	3940
5571	2687	-4962	3626	-281	2176	3940
5576	2546	-5165	4183	-281	2176	3940
5581	2599	-5330	4202	-281	2176	3940
5586	2649	-5679	3885	2191	5812	8769
5591	2648	-6347	3509	2191	5812	8769
5596	2669	-6888	3591	2191	5812	8769
5601	3258	-7480	3603	2191	5812	8769
5606	3701	-7007	3641	2191	5812	8769
5611	3834	-5783	3956	2191	5812	8769
5616	4214	-4276	3586	-2223	9103	11782
5621	4742	-2942	2609	-2223	9103	11782
5626	4917	-2076	1820	-2223	9103	11782
5631	4556	-1285	1071	-2223	9103	11782
5636	4120	-649	308	-2223	9103	11782
5641	2881	47	-167	-2223	9103	11782
5646	2653	-31	-114	-4099	6581	13071
5651	2634	-34	-88	-4099	6581	13071
5656	2639	-26	-83	-4099	6581	13071
5661	2638	-38	-87	-4099	6581	13071
5666	2628	-41	-75	-4099	6581	13071
5671	2634	-39	-65	-4099	6581	13071
5676	2628	-38	-91	-5161	2590	14469
5681	2632	-48	-74	-5161	2590	14469
5686	2631	-43	-78	-5161	2590	14469
5691	2617	-48	-78	-5161	2590	14469
5696	2621	-42	-92	-5161	2590	14469
5701	2624	-39	-88	-5161	2590	14469
5706	2619	-39	-84	-5125	-2229	14450
5711	2620	-38	-97	-5125	-2229	14450
5716	2625	-35	-98	-5125	-2229	14450
5721	2614	-26	-111	-5125	-2229	14450
5726	2620	-31	-97	-5125	-2229	14450
5731	2626	-39	-94	-5125	-2229	14450
5736	2609	-30	-102	-5125	-2229	14450
5741	2622	-31	-99	-3974	-6024	13288
5746	2620	-34	-89	-3974	-6024	13288
5751	2618	-20	-91	-3974	-6024	13288
5756	2622	-12	-100	-3974	-6024	13288
5761	2624	-13	-82	-3974	-6024	13288
5766	2620	-24	-96	-3974	-6024	13288
5771	2625	-9	-93	-2315	-8300	11941
5776	2615	-15	-105	-2315	-8300	11941
5781	2607	-16	-102	-2315	-8300	11941
5786	2608	-6	-93	-2315	-8300	11941
5791	2603	-9	-118	-2315	-8300	11941
5796	2605	-11	-126	-2315	-8300	11941
5801	2594	-5	-121	-523	-9091	11306
5806	2593	-10	-126	-523	-9091	11306
5811	2585	-4	-145	-523	-9091	11306
5816	2576	-2	-133	-523	-9091	11306
5821	2578	-5	-139	-523	-9091	11306
5826	2566	7	-142	-523	-9091	11306
5831	2555	10	-148	-12016	4553	-5490
5836	2547	8	-155	-12016	4553	-5490
5841	2547	13	-150	-12016	4553	-5490
5846	2531	20	-158	-12016	4553	-5490
5851	2514	17	-154	-12016	4553	-5490
5856	933	3417	2728	-12016	4553	-5490
5861	-5518	466	-214	-103	9693	-3894
5866	-11	110	-99	-103	9693	-3894
5871	277	-84	-751	-103	9693	-3894
5876	881	-774	-1931	-103	9693	-3894
5881	1347	-1578	-1844	-103	9693	-3894
5886	1065	-2700	-2667	-103	9693	-3894
5891	-35	-5184	-3135	-103	9693	-3894
5896	1302	-4809	-5354	-4774	-1877	-366
5901	1107	-4007	-6305	-4774	-1877	-366
5906	372	-2316	-6530	-4774	-1877	-366
5911	-375	-16	-5603	-4774	-1877	-366
5916	-381	1260	-3853	-4774	-1877	-366
5921	-467	1521	-2603	-4774	-1877	-366
5926	-837	1475	-1420	-3293	2858	-3199
5931	-842	1326	-574	-3293	2858	-3199
5936	-421	1202	-126	-3293	2858	-3199
5941	302	1231	298	-3293	2858	-3199
5946	815	1253	548	-3293	2858	-3199
5951	869	760	39	-3293	2858	-3199
5956	910	129	-883	-6471	1121	-399
5961	1153	-274	-1838	-6471	1121	-399
5966	1122	-485	-2807	-6471	1121	-399
5971	763	-515	-3779	-6471	1121	-399
5976	426	-28	-4190	-6471	1121	-399
5981	813	484	-3894	-6471	1121	-399
5986	1557	781	-3248	-1586	3004	660
5991	2132	903	-2400	-1586	3004	660
5996	1559	877	-1604	-1586	3004	660
6001	1366	555	-989	-1586	3004	660
6006	1426	355	-540	-1586	3004	660
6011	1474	491	-403	-1586	3004	660
6016	1526	423	-986	-152	2453	1835
6021	1808	410	-1729	-152	2453	1835
6026	2005	661	-2246	-152	2453	1835
6031	2073	969	-2605	-152	2453	1835
6036	1933	1070	-2633	-152	2453	1835
6041	1806	804	-2632	-152	2453	1835
6046	1491	678	-2491	-152	2453	1835
6051	1444	748	-2243	-3334	1669	1340
6056	1362	913	-1999	-3334	1669	1340
6061	1300	1183	-1847	-3334	1669	1340
6066	1272	1654	-1720	-3334	1669	1340
6071	1498	2216	-1530	-3334	1669	1340
6076	1911	2756	-1392	-3334	1669	1340
6081	2289	2940	-1157	-82	2171	-528
6086	2543	2699	-984	-82	2171	-528
6091	2100	2196	-1118	-82	2171	-528
6096	1967	1793	-1287	-82	2171	-528
6101	1958	1590	-1494	-82	2171	-528
6106	2075	1806	-1739	-82	2171	-528
6111	1811	2198	-1761	1412	1851	-1190
6116	1792	2650	-1599	1412	1851	-1190
6121	1933	2745	-1418	1412	1851	-1190
6126	1983	2553	-1362	1412	1851	-1190
6131	1977	2212	-1325	1412	1851	-1190
6136	1957	1773	-1297	1412	1851	-1190
6141	2031	1582	-1321	1657	432	-2261
6146	2053	1838	-1457	1657	432	-2261
6151	2112	2429	-1763	1657	432	-2261
6156	2041	3012	-2110	1657	432	-2261
6161	1959	3218	-2222	1657	432	-2261
6166	2189	3356	-2061	1657	432	-2261
6171	2449	3532	-1811	1044	-783	-5336
6176	2687	3837	-1694	1044	-783	-5336
6181	3135	4342	-1812	1044	-783	-5336
6186	3241	4502	-2218	1044	-783	-5336
6191	3344	4450	-2698	1044	-783	-5336
6196	3324	4483	-3131	1044	-783	-5336
6201	3254	4550	-3323	1044	-783	-5336
6206	3354	4500	-3092	2088	-3556	-8928
6211	3381	4515	-2932	2088	-3556	-8928
6216	3530	4948	-2792	2088	-3556	-8928
6221	3858	5582	-2916	2088	-3556	-8928
6226	4131	5822	-3266	2088	-3556	-8928
6231	4430	5308	-3374	2088	-3556	-8928
6236	4494	4157	-3266	-1628	-6498	-11022
6241	4567	3039	-2840	-1628	-6498	-11022
6246	3981	1650	-2037	-1628	-6498	-11022
6251	3821	1029	-1540	-1628	-6498	-11022
6256	3758	745	-1218	-1628	-6498	-11022
6261	2734	158	-634	-1628	-6498	-11022
6266	2252	-93	-186	-2592	-5261	-11598
6271	2015	-78	-98	-2592	-5261	-11598
6276	2011	-62	-91	-2592	-5261	-11598
6281	2004	-66	-99	-2592	-5261	-11598
6286	1998	-65	-92	-2592	-5261	-11598
6291	1994	-52	-114	-2592	-5261	-11598
6296	1985	-49	-118	-3489	-2895	-12490
6301	1984	-51	-121	-3489	-2895	-12490
6306	1989	-44	-126	-3489	-2895	-12490
6311	1985	-51	-120	-3489	-2895	-12490
6316	1972	-50	-113	-3489	-2895	-12490
6321	1977	-48	-126	-3489	-2895	-12490
6326	1970	-44	-124	-3719	166	-12817
6331	1969	-50	-132	-3719	166	-12817
6336	1957	-47	-136	-3719	166	-12817
6341	1953	-37	-142	-3719	166	-12817
6346	1956	-41	-145	-3719	166	-12817
6351	1958	-26	-137	-3719	166	-12817
6356	1954	-29	-139	-3719	166	-12817
6361	1954	-20	-139	-3298	2881	-12456
6366	1944	-21	-128	-3298	2881	-12456
6371	1955	-20	-139	-3298	2881	-12456
6376	1955	-11	-151	-3298	2881	-12456
6381	1943	-9	-145	-3298	2881	-12456
6386	1955	-8	-154	-3298	2881	-12456
6391	1947	-16	-145	-2340	5096	-11739
6396	1949	-6	-142	-2340	5096	-11739
6401	1948	-5	-147	-2340	5096	-11739
6406	1957	3	-146	-2340	5096	-11739
6411	1953	5	-142	-2340	5096	-11739
6416	1965	11	-142	-2340	5096	-11739
6421	1958	10	-132	-1122	6318	-11056
6426	1958	10	-140	-1122	6318	-11056
6431	1964	16	-133	-1122	6318	-11056
6436	1962	22	-146	-1122	6318	-11056
6441	1967	9	-129	-1122	6318	-11056
6446	1965	22	-130	-1122	6318	-11056
6451	1959	20	-113	141	6632	-10841
6456	1958	16	-129	141	6632	-10841
6461	1953	20	-110	141	6632	-10841
6466	1954	12	-112	141	6632	-10841
6471	1948	11	-125	141	6632	-10841
6476	1950	19	-112	141	6632	-10841
6481	1954	14	-104	-7196	-4575	4605
6486	1935	16	-114	-7196	-4575	4605
6491	-7635	-8788	-4029	-7196	-4575	4605
6496	-179	1444	364	-7196	-4575	4605
6501	936	3000	5430	-7196	-4575	4605
6506	2131	-1748	6554	-7196	-4575	4605
6511	-383	-888	1777	-7196	-4575	4605
6516	-759	36	2061	-2191	-1159	-1485
6521	267	1566	2836	-2191	-1159	-1485
6526	2512	1902	4331	-2191	-1159	-1485
6531	3366	4071	2794	-2191	-1159	-1485
6536	2628	4136	2229	-2191	-1159	-1485
6541	1791	2500	2693	-2191	-1159	-1485
6546	1688	1372	2396	-3411	-1574	1611
6551	521	138	1896	-3411	-1574	1611
6556	115	-975	1464	-3411	-1574	1611
6561	-77	-2309	1099	-3411	-1574	1611
6566	-77	-3228	814	-3411	-1574	1611
6571	47	-3103	741	-3411	-1574	1611
6576	125	-2751	913	-3312	-2057	2850
6581	314	-2400	1166	-3312	-2057	2850
6586	738	-1759	1360	-3312	-2057	2850
6591	882	-1178	1557	-3312	-2057	2850
6596	882	-625	1916	-3312	-2057	2850
6601	907	-251	2193	-3312	-2057	2850
6606	786	-413	2137	-6299	-2242	276
6611	398	-433	1945	-6299	-2242	276
6616	411	-324	1754	-6299	-2242	276
6621	628	-247	1596	-6299	-2242	276
6626	975	-212	1522	-6299	-2242	276
6631	1422	-202	1488	-6299	-2242	276
6636	1902	-235	1026	-3154	-2065	-54
6641	2541	-389	1030	-3154	-2065	-54
6646	2600	-709	1408	-3154	-2065	-54
6651	2412	-1237	1728	-3154	-2065	-54
6656	1932	-1748	1894	-3154	-2065	-54
6661	1599	-1964	1760	-3154	-2065	-54
6666	1426	-1885	1563	-3154	-2065	-54
6671	1446	-1644	1352	-2953	-1731	-1047
6676	1397	-1438	1189	-2953	-1731	-1047
6681	1538	-1246	1074	-2953	-1731	-1047
6686	1703	-1035	968	-2953	-1731	-1047
6691	1820	-962	817	-2953	-1731	-1047
6696	1915	-1076	731	-2953	-1731	-1047
6701	2016	-1207	717	465	-1781	-1228
6706	2214	-1554	733	465	-1781	-1228
6711	2245	-1563	743	465	-1781	-1228
6716	1821	-1320	740	465	-1781	-1228
6721	1567	-839	781	465	-1781	-1228
6726	1633	-679	732	465	-1781	-1228
6731	1804	-948	755	1213	-1603	-909
6736	1842	-1326	825	1213	-1603	-909
6741	1803	-1675	898	1213	-1603	-909
6746	1830	-2167	917	1213	-1603	-909
6751	1773	-2220	1067	1213	-1603	-909
6756	1942	-2431	1073	1213	-1603	-909
6761	2006	-2730	1195	2887	-310	1028
6766	2197	-3164	1355	2887	-310	1028
6771	2398	-3580	1615	2887	-310	1028
6776	2653	-3997	1930	2887	-310	1028
6781	2333	-4280	2321	2887	-310	1028
6786	2356	-4595	2345	2887	-310	1028
6791	2474	-4711	2177	622	521	5154
6796	2538	-4840	1917	622	521	5154
6801	2681	-5045	1743	622	521	5154
6806	3044	-5363	1637	622	521	5154
6811	3349	-5626	1739	622	521	5154
6816	3413	-5771	1946	622	521	5154
6821	3671	-5941	2141	622	521	5154
6826	3915	-5736	2456	607	3689	8800
6831	4005	-5157	2630	607	3689	8800
6836	4152	-4703	2611	607	3689	8800
6841	4141	-4691	2568	607	3689	8800
6846	4021	-4292	2402	607	3689	8800
6851	4182	-3880	2065	607	3689	8800
6856	4429	-3314	1783	-2637	4812	12515
6861	4657	-2762	1483	-2637	4812	12515
6866	4723	-2141	1248	-2637	4812	12515
6871	4017	-1312	1028	-2637	4812	12515
6876	3391	-581	690	-2637	4812	12515
6881	2806	-153	113	-2637	4812	12515
6886	2211	5	-85	-3462	2336	13035
6891	2152	-4	-85	-3462	2336	13035
6896	2160	-7	-94	-3462	2336	13035
6901	2155	-19	-88	-3462	2336	13035
6906	2143	-18	-95	-3462	2336	13035
6911	2157	-20	-85	-3462	2336	13035
6916	2151	-29	-89	-3592	-593	13224
6921	2146	-36	-92	-3592	-593	13224
6926	2146	-33	-92	-3592	-593	13224
6931	2143	-25	-95	-3592	-593	13224
6936	2148	-27	-104	-3592	-593	13224
6941	2150	-29	-105	-3592	-593	13224
6946	2149	-28	-107	-3033	-3231	12761
6951	2143	-39	-107	-3033	-3231	12761
6956	2145	-33	-96	-3033	-3231	12761
6961	2151	-26	-95	-3033	-3231	12761
6966	2148	-22	-104	-3033	-3231	12761
6971	2138	-21	-106	-3033	-3231	12761
6976	2134	-15	-106	-3033	-3231	12761
6981	2140	-16	-116	-2001	-5069	12163
6986	2128	-16	-115	-2001	-5069	12163
6991	2141	-18	-111	-2001	-5069	12163
6996	2137	-9	-111	-2001	-5069	12163
7001	2147	-6	-109	-2001	-5069	12163
7006	2138	-9	-104	-2001	-5069	12163
7011	2136	2	-116	-711	-5938	11700
7016	2146	4	-108	-711	-5938	11700
7021	2140	2	-123	-711	-5938	11700
7026	2134	0	-119	-711	-5938	11700
7031	2125	-3	-118	-711	-5938	11700
7036	2133	2	-119	-711	-5938	11700
7041	2119	-3	-128	535	-5892	11718
7046	2117	-3	-130	535	-5892	11718
7051	2120	-6	-133	535	-5892	11718
7056	2115	2	-137	535	-5892	11718
7061	2104	-5	-128	535	-5892	11718
7066	2095	-9	-152	535	-5892	11718
7071	2100	-9	-147	1610	-4820	12124
7076	2094	-17	-150	1610	-4820	12124
7081	2092	-16	-152	1610	-4820	12124
7086	2080	-23	-142	1610	-4820	12124
7091	2070	-15	-146	1610	-4820	12124
7096	2078	-19	-149	1610	-4820	12124
7101	2068	-22	-147	-9113	9462	-5510
7106	2050	-10	-157	-9113	9462	-5510
7111	2050	-18	-163	-9113	9462	-5510
7116	-791	957	2307	-9113	9462	-5510
7121	-3206	74	-20	-9113	9462	-5510
7126	207	-94	-1999	-9113	9462	-5510
7131	-686	-846	-5630	-9113	9462	-5510
7136	412	-416	-1837	-1891	3114	1033
7141	-343	-3277	-4281	-1891	3114	1033
7146	-633	-5220	-4429	-1891	3114	1033
7151	249	-3643	-4117	-1891	3114	1033
7156	2784	-2153	-5756	-1891	3114	1033
7161	2503	-2609	-5511	-1891	3114	1033
7166	1678	-2025	-5348	-2523	500	-2747
7171	745	-390	-4907	-2523	500	-2747
7176	643	849	-2999	-2523	500	-2747
7181	499	1230	-1134	-2523	500	-2747
7186	298	878	-438	-2523	500	-2747
7191	271	693	-63	-2523	500	-2747
7196	560	427	-147	-4105	1764	-1813
7201	983	72	-630	-4105	1764	-1813
7206	1284	-322	-1363	-4105	1764	-1813
7211	1492	-695	-2078	-4105	1764	-1813
7216	1466	-845	-2591	-4105	1764	-1813
7221	1309	-928	-2832	-4105	1764	-1813
7226	1112	-702	-2881	-1979	2473	467
7231	983	-454	-2787	-1979	2473	467
7236	877	-126	-2205	-1979	2473	467
7241	946	-13	-1555	-1979	2473	467
7246	1177	-101	-1062	-1979	2473	467
7251	1191	231	-741	-1979	2473	467
7256	1047	426	-1117	-9575	1477	3897
7261	1032	31	-1750	-9575	1477	3897
7266	1141	-329	-2067	-9575	1477	3897
7271	1207	-522	-1999	-9575	1477	3897
7276	983	-445	-1915	-9575	1477	3897
7281	713	-167	-2083	-9575	1477	3897
7286	626	215	-2288	-9575	1477	3897
7291	984	852	-2532	1677	455	-87
7296	1857	1658	-2326	1677	455	-87
7301	2781	2680	-2125	1677	455	-87
7306	3668	3435	-1936	1677	455	-87
7311	4623	4294	-2363	1677	455	-87
7316	2128	2987	-2928	1677	455	-87
7321	902	1870	-2870	-51	628	-181
7326	1513	1889	-2368	-51	628	-181
7331	1786	1921	-1835	-51	628	-181
7336	1693	1844	-1572	-51	628	-181
7341	1741	1966	-1720	-51	628	-181
7346	1733	2370	-1995	-51	628	-181
7351	1669	2767	-2253	2267	-195	-2318
7356	1681	3063	-2454	2267	-195	-2318
7361	1672	3266	-2644	2267	-195	-2318
7366	1575	3245	-2604	2267	-195	-2318
7371	1719	3409	-2573	2267	-195	-2318
7376	1865	3554	-2606	2267	-195	-2318
7381	2141	3612	-2772	2394	-3393	-4580
7386	2478	3622	-3259	2394	-3393	-4580
7391	2940	3719	-3826	2394	-3393	-4580
7396	3053	3801	-4287	2394	-3393	-4580
7401	3152	3971	-4757	2394	-3393	-4580
7406	3345	4240	-5205	2394	-3393	-4580
7411	3646	4546	-5535	2453	-9988	-6541
7416	4076	4703	-5706	2453	-9988	-6541
7421	4262	4401	-5635	2453	-9988	-6541
7426	4643	3647	-5163	2453	-9988	-6541
7431	4863	2757	-4337	2453	-9988	-6541
7436	4304	2010	-3506	2453	-9988	-6541
7441	4073	1668	-3026	2453	-9988	-6541
7446	4382	1614	-2599	1893	-10960	-4693
7451	3772	1192	-2024	1893	-10960	-4693
7456	2814	591	-1320	1893	-10960	-4693
7461	2119	38	-560	1893	-10960	-4693
7466	1920	-65	-238	1893	-10960	-4693
7471	1804	-8	-97	1893	-10960	-4693
7476	1719	4	-68	1001	-11382	-3726
7481	1721	0	-72	1001	-11382	-3726
7486	1705	3	-83	1001	-11382	-3726
7491	1711	1	-83	1001	-11382	-3726
7496	1718	2	-97	1001	-11382	-3726
7501	1712	2	-100	1001	-11382	-3726
7506	1705	2	-90	305	-11492	-3086
7511	1709	4	-100	305	-11492	-3086
7516	1707	3	-86	305	-11492	-3086
7521	1701	5	-102	305	-11492	-3086
7526	1704	8	-91	305	-11492	-3086
7531	1698	-7	-93	305	-11492	-3086
7536	1701	-8	-85	-379	-11485	-2999
7541	1698	-6	-86	-379	-11485	-2999
7546	1702	-13	-81	-379	-11485	-2999
7551	1691	-4	-82	-379	-11485	-2999
7556	1690	-7	-101	-379	-11485	-2999
7561	1677	-9	-83	-379	-11485	-2999
7566	1682	-12	-60	-1063	-11251	-3443
7571	1676	-6	-79	-1063	-11251	-3443
7576	1676	-20	-86	-1063	-11251	-3443
7581	1676	-11	-75	-1063	-11251	-3443
7586	1672	-13	-86	-1063	-11251	-3443
7591	1680	-14	-80	-1063	-11251	-3443
7596	1667	-9	-65	-1063	-11251	-3443
7601	1668	-21	-82	-1930	-10880	-4398
7606	1663	-12	-72	-1930	-10880	-4398
7611	1672	-21	-74	-1930	-10880	-4398
7616	1662	-15	-88	-1930	-10880	-4398
7621	1672	-25	-79	-1930	-10880	-4398
7626	1666	-37	-78	-1930	-10880	-4398
7631	1655	-29	-90	-2928	-10059	-5923
7636	1658	-28	-92	-2928	-10059	-5923
7641	1656	-36	-96	-2928	-10059	-5923
7646	1654	-33	-97	-2928	-10059	-5923
7651	1658	-29	-97	-2928	-10059	-5923
7656	1641	-39	-100	-2928	-10059	-5923
7661	1643	-26	-123	-3866	-8507	-7669
7666	1647	-37	-107	-3866	-8507	-7669
7671	1647	-29	-123	-3866	-8507	-7669
7676	1628	-31	-116	-3866	-8507	-7669
7681	1617	-30	-126	-3866	-8507	-7669
7686	1620	-29	-126	-3866	-8507	-7669
7691	1598	-39	-132	6703	3667	-1331
7696	824	-838	-1870	6703	3667	-1331
7701	1682	15553	-8774	6703	3667	-1331
7706	3668	23217	-124	6703	3667	-1331
7711	-713	943	-444	6703	3667	-1331
7716	-1566	253	709	6703	3667	-1331
7721	-457	-2199	1739	-2512	2184	153
7726	676	2053	1365	-2512	2184	153
7731	-77	1891	-253	-2512	2184	153
7736	502	765	-1761	-2512	2184	153
7741	1076	672	-2897	-2512	2184	153
7746	1050	518	-4090	-2512	2184	153
7751	666	541	-4765	-2512	2184	153
7756	1186	1013	-3749	-815	1534	2008
7761	1650	1296	-2704	-815	1534	2008
7766	1829	1489	-1752	-815	1534	2008
7771	1717	1340	-1118	-815	1534	2008
7776	1618	1156	-1765	-815	1534	2008
7781	1593	998	-2404	-815	1534	2008
7786	1499	1128	-2711	-3571	2	2919
7791	1167	1443	-2783	-3571	2	2919
7796	964	1726	-2482	-3571	2	2919
7801	671	1829	-1765	-3571	2	2919
7806	458	1712	-936	-3571	2	2919
7811	349	1586	-154	-3571	2	2919
7816	285	1705	383	859	2614	1495
7821	488	1984	640	859	2614	1495
7826	1054	2152	517	859	2614	1495
7831	1417	2320	480	859	2614	1495
7836	1853	2605	355	859	2614	1495
7841	2102	2888	-78	859	2614	1495
7846	1771	2489	-807	-790	1544	1489
7851	1367	1876	-1283	-790	1544	1489
7856	1349	1513	-1592	-790	1544	1489
7861	1372	1262	-1657	-790	1544	1489
7866	1345	987	-1587	-790	1544	1489
7871	1359	695	-1208	-790	1544	1489
7876	1405	638	-858	-126	2207	2747
7881	1637	940	-708	-126	2207	2747
7886	1736	1194	-822	-126	2207	2747
7891	1774	1388	-1101	-126	2207	2747
7896	1749	1491	-1370	-126	2207	2747
7901	1534	1669	-1510	-126	2207	2747
7906	1657	2055	-1513	-126	2207	2747
7911	1918	2687	-1462	-95	1467	319
7916	2083	2988	-1578	-95	1467	319
7921	1995	3023	-1739	-95	1467	319
7926	1882	3021	-1999	-95	1467	319
7931	2022	2996	-2376	-95	1467	319
7936	2054	3054	-2681	-95	1467	319
7941	1967	3167	-2779	955	-226	-1381
7946	2174	3341	-2653	955	-226	-1381
7951	2344	3563	-2538	955	-226	-1381
7956	2395	3967	-2493	955	-226	-1381
7961	2358	4220	-2587	955	-226	-1381
7966	2636	4487	-2615	955	-226	-1381
7971	2981	5204	-2713	212	-1883	-4830
7976	2925	5387	-2758	212	-1883	-4830
7981	3030	5014	-2662	212	-1883	-4830
7986	3346	4776	-2541	212	-1883	-4830
7991	3620	4545	-2504	212	-1883	-4830
7996	3881	4459	-2707	212	-1883	-4830
8001	4170	4694	-3068	1801	-5833	-7095
8006	4285	4732	-3328	1801	-5833	-7095
8011	4158	4504	-3412	1801	-5833	-7095
8016	4118	4310	-3284	1801	-5833	-7095
8021	3968	3925	-3019	1801	-5833	-7095
8026	3897	3449	-2667	1801	-5833	-7095
8031	3902	2767	-2078	-4344	-9339	-9934
8036	3359	1826	-1866	-4344	-9339	-9934
8041	3594	1601	-1741	-4344	-9339	-9934
8046	3679	1558	-1938	-4344	-9339	-9934
8051	4192	1578	-2062	-4344	-9339	-9934
8056	4354	1475	-2161	-4344	-9339	-9934
8061	3475	723	-1535	-4344	-9339	-9934
8066	2735	-43	-557	-4974	-6280	-12984
8071	2402	-97	-20	-4974	-6280	-12984
8076	2357	-116	-102	-4974	-6280	-12984
8081	2434	-123	-26	-4974	-6280	-12984
8086	2621	-149	-25	-4974	-6280	-12984
8091	2513	-92	-125	-4974	-6280	-12984
8096	2484	-97	-144	-5815	-1577	-14117
8101	2486	-84	-127	-5815	-1577	-14117
8106	2461	-75	-142	-5815	-1577	-14117
8111	2464	-82	-130	-5815	-1577	-14117
8116	2452	-66	-126	-5815	-1577	-14117
8121	2447	-71	-139	-5815	-1577	-14117
8126	2448	-57	-140	-5421	3523	-13890
8131	2435	-62	-139	-5421	3523	-13890
8136	2433	-49	-155	-5421	3523	-13890
8141	2430	-47	-162	-5421	3523	-13890
8146	2429	-43	-157	-5421	3523	-13890
8151	2423	-27	-149	-5421	3523	-13890
8156	2429	-21	-180	-3979	7543	-12203
8161	2423	-7	-160	-3979	7543	-12203
8166	2415	-9	-155	-3979	7543	-12203
8171	2431	5	-167	-3979	7543	-12203
8176	2425	-1	-168	-3979	7543	-12203
8181	2436	13	-171	-3979	7543	-12203
8186	2438	15	-146	-2089	9780	-10454
8191	2445	15	-158	-2089	9780	-10454
8196	2443	18	-146	-2089	9780	-10454
8201	2451	21	-137	-2089	9780	-10454
8206	2447	26	-122	-2089	9780	-10454
8211	2453	21	-126	-2089	9780	-10454
8216	2445	26	-119	-2089	9780	-10454
8221	2453	27	-134	-403	10499	-9697
8226	2457	26	-114	-403	10499	-9697
8231	2462	27	-110	-403	10499	-9697
8236	2460	28	-108	-403	10499	-9697
8241	2466	30	-119	-403	10499	-9697
8246	2468	23	-79	-403	10499	-9697
8251	2457	13	-91	3952	9116	-8885
8256	2450	4	-92	3952	9116	-8885
8261	2430	7	-92	3952	9116	-8885
8266	2437	9	-78	3952	9116	-8885
8271	2428	9	-85	3952	9116	-8885
8276	2401	71	-125	3952	9116	-8885
8281	-7116	6861	-7013	906	-5652	569
8286	-1297	1199	1223	906	-5652	569
8291	97	559	1021	906	-5652	569
8296	-518	251	1664	906	-5652	569
8301	-1750	1132	3002	906	-5652	569
8306	-2192	2288	3188	906	-5652	569
8311	162	2659	2451	-4597	-1075	-645
8316	1901	2303	2443	-4597	-1075	-645
8321	1500	1799	3069	-4597	-1075	-645
8326	527	779	2842	-4597	-1075	-645
8331	-21	-364	2017	-4597	-1075	-645
8336	-355	-1396	949	-4597	-1075	-645
8341	-734	-1862	-56	-1987	-3670	1914
8346	-793	-1927	-449	-1987	-3670	1914
8351	-709	-2085	-183	-1987	-3670	1914
8356	-471	-2287	621	-1987	-3670	1914
8361	-303	-2318	1240	-1987	-3670	1914
8366	-5	-2111	1662	-1987	-3670	1914
8371	406	-1668	2076	-1987	-3670	1914
8376	690	-1032	2478	-9325	-203	83
8381	947	-292	2862	-9325	-203	83
8386	875	131	3036	-9325	-203	83
8391	709	261	3086	-9325	-203	83
8396	630	84	3059	-9325	-203	83
8401	581	-297	2929	-9325	-203	83
8406	733	-710	2572	-18	-2529	-1880
8411	1150	-1000	1906	-18	-2529	-1880
8416	1484	-1042	1283	-18	-2529	-1880
8421	2018	-1147	1007	-18	-2529	-1880
8426	2277	-1001	1329	-18	-2529	-1880
8431	2016	-883	1963	-18	-2529	-1880
8436	1369	-620	2330	-6095	-182	-2620
8441	965	-581	2315	-6095	-182	-2620
8446	803	-846	2073	-6095	-182	-2620
8451	716	-1011	1604	-6095	-182	-2620
8456	468	-1128	1217	-6095	-182	-2620
8461	603	-1059	721	-6095	-182	-2620
8466	795	-928	399	1284	-1761	-4042
8471	903	-819	128	1284	-1761	-4042
8476	1220	-728	-37	1284	-1761	-4042
8481	2024	-874	-135	1284	-1761	-4042
8486	2573	-1079	26	1284	-1761	-4042
8491	2753	-1666	402	1284	-1761	-4042
8496	2293	-2487	686	77	-1190	-638
8501	1803	-3408	903	77	-1190	-638
8506	1864	-3734	1165	77	-1190	-638
8511	1951	-3658	1416	77	-1190	-638
8516	2053	-3813	1681	77	-1190	-638
8521	2120	-3936	1894	77	-1190	-638
8526	2041	-3995	2119	77	-1190	-638
8531	2312	-4276	2191	-412	840	1700
8536	2297	-4352	2310	-412	840	1700
8541	2180	-4200	2286	-412	840	1700
8546	2222	-4191	2123	-412	840	1700
8551	2395	-4591	1892	-412	840	1700
8556	2523	-5074	1797	-412	840	1700
8561	2634	-5609	1799	186	1449	5838
8566	2735	-5916	1894	186	1449	5838
8571	2883	-5876	1946	186	1449	5838
8576	3053	-5787	1913	186	1449	5838
8581	3316	-5598	1864	186	1449	5838
8586	3587	-5204	1900	186	1449	5838
8591	3774	-4994	1918	1906	3659	9058
8596	3912	-5026	1848	1906	3659	9058
8601	3995	-5074	1997	1906	3659	9058
8606	4068	-5101	2248	1906	3659	9058
8611	4146	-5113	2534	1906	3659	9058
8616	4020	-4637	2500	1906	3659	9058
8621	4548	-3974	2144	3042	8126	11397
8626	5077	-3288	1716	3042	8126	11397
8631	4835	-2666	1554	3042	8126	11397
8636	4621	-2002	1246	3042	8126	11397
8641	4232	-1246	830	3042	8126	11397
8646	3719	-685	404	3042	8126	11397
8651	3016	-161	-24	1371	9951	10121
8656	2456	-30	-132	1371	9951	10121
8661	2414	-60	-112	1371	9951	10121
8666	2407	-51	-103	1371	9951	10121
8671	2416	-49	-96	1371	9951	10121
8676	2400	-62	-105	1371	9951	10121
8681	2408	-51	-93	1371	9951	10121
8686	2409	-44	-93	-428	10153	9846
8691	2411	-49	-86	-428	10153	9846
8696	2403	-49	-78	-428	10153	9846
8701	2392	-38	-83	-428	10153	9846
8706	2394	-35	-89	-428	10153	9846
8711	2389	-44	-82	-428	10153	9846
8716	2394	-41	-100	-2194	9412	10392
8721	2384	-39	-101	-2194	9412	10392
8726	2384	-33	-89	-2194	9412	10392
8731	2382	-26	-66	-2194	9412	10392
8736	2370	-24	-85	-2194	9412	10392
8741	2377	-35	-86	-2194	9412	10392
8746	2361	-26	-92	-3807	7264	11995
8751	2363	-26	-88	-3807	7264	11995
8756	2360	-30	-88	-3807	7264	11995
8761	2365	-32	-75	-3807	7264	11995
8766	2353	-22	-95	-3807	7264	11995
8771	2352	-39	-84	-3807	7264	11995
8776	2349	-30	-83	-5081	3638	13328
8781	2350	-30	-96	-5081	3638	13328
8786	2348	-41	-89	-5081	3638	13328
8791	2352	-30	-88	-5081	3638	13328
8796	2353	-35	-98	-5081	3638	13328
8801	2352	-42	-80	-5081	3638	13328
8806	2356	-44	-92	-5385	-814	13802
8811	2350	-60	-87	-5385	-814	13802
8816	2352	-45	-90	-5385	-814	13802
8821	2354	-47	-81	-5385	-814	13802
8826	2354	-44	-95	-5385	-814	13802
8831	2346	-52	-91	-5385	-814	13802
8836	2353	-45	-98	-5385	-814	13802
8841	2347	-49	-116	-4821	-4923	12787
8846	2347	-48	-119	-4821	-4923	12787
8851	2338	-43	-137	-4821	-4923	12787
8856	2334	-46	-116	-4821	-4923	12787
8861	2334	-41	-145	-4821	-4923	12787
8866	2324	-36	-119	-4821	-4923	12787
8871	-7691	-926	-834	6825	4762	-2497
8876	-2226	-5225	-5512	6825	4762	-2497
8881	-208	-451	-2017	6825	4762	-2497
8886	-1303	910	-1507	6825	4762	-2497
8891	-677	860	-1275	6825	4762	-2497
8896	-1163	369	-1489	6825	4762	-2497
8901	-2887	-3749	-2872	-3458	1356	967
8906	-462	-5387	-2299	-3458	1356	967
8911	1340	-4467	-2086	-3458	1356	967
8916	457	-2234	-2879	-3458	1356	967
8921	-161	-908	-2760	-3458	1356	967
8926	-473	516	-1645	-3458	1356	967
8931	-1065	1572	-628	-3358	2596	-1970
8936	-1283	2035	-316	-3358	2596	-1970
8941	-1302	2021	-468	-3358	2596	-1970
8946	-1151	1417	-1063	-3358	2596	-1970
8951	-782	851	-1508	-3358	2596	-1970
8956	-540	275	-1463	-3358	2596	-1970
8961	-671	130	-1108	-7028	3248	-717
8966	-763	384	-637	-7028	3248	-717
8971	-450	583	-320	-7028	3248	-717
8976	-139	503	-704	-7028	3248	-717
8981	315	99	-1163	-7028	3248	-717
8986	206	-120	-1682	-7028	3248	-717
8991	563	-29	-1949	-7028	3248	-717
8996	947	-142	-2030	-2066	1905	1851
9001	1332	-223	-2245	-2066	1905	1851
9006	1676	-134	-2283	-2066	1905	1851
9011	2029	28	-2209	-2066	1905	1851
9016	2313	220	-2065	-2066	1905	1851
9021	2154	632	-1765	-2066	1905	1851
9026	1385	1093	-1453	-2856	2413	370
9031	1316	1759	-1009	-2856	2413	370
9036	2037	2601	-1311	-2856	2413	370
9041	2001	2337	-2212	-2856	2413	370
9046	1650	2170	-3375	-2856	2413	370
9051	1797	1971	-4176	-2856	2413	370
9056	1844	1662	-4237	-303	320	3634
9061	1532	1334	-3820	-303	320	3634
9066	1411	903	-3130	-303	320	3634
9071	1245	621	-2468	-303	320	3634
9076	1139	402	-1857	-303	320	3634
9081	1087	312	-1202	-303	320	3634
9086	1131	630	-884	52	1827	1271
9091	1222	1277	-642	52	1827	1271
9096	1516	1772	-948	52	1827	1271
9101	1728	1963	-1282	52	1827	1271
9106	2293	2233	-1750	52	1827	1271
9111	2324	3412	-2450	52	1827	1271
9116	1754	3975	-3191	-724	414	-924
9121	1446	3179	-3332	-724	414	-924
9126	1426	3382	-3432	-724	414	-924
9131	1640	3508	-3141	-724	414	-924
9136	1783	3330	-2831	-724	414	-924
9141	1853	3023	-2846	-724	414	-924
9146	1853	2950	-3168	-724	414	-924
9151	1837	3145	-3681	-849	-1811	-2917
9156	1809	3639	-3944	-849	-1811	-2917
9161	1855	4271	-4008	-849	-1811	-2917
9166	1955	4650	-3903	-849	-1811	-2917
9171	2131	4978	-3830	-849	-1811	-2917
9176	2412	5601	-3927	-849	-1811	-2917
9181	2730	6148	-4133	2055	-5238	-8207
9186	3130	6472	-4505	2055	-5238	-8207
9191	3423	6598	-4737	2055	-5238	-8207
9196	3396	6384	-4644	2055	-5238	-8207
9201	3629	6238	-4349	2055	-5238	-8207
9206	3992	5831	-3666	2055	-5238	-8207
9211	4397	5356	-2630	-2455	-5835	-10250
9216	4657	4785	-1904	-2455	-5835	-10250
9221	4689	3860	-1496	-2455	-5835	-10250
9226	4470	2774	-1299	-2455	-5835	-10250
9231	4311	2012	-1360	-2455	-5835	-10250
9236	4360	1551	-1470	-2455	-5835	-10250
9241	4086	811	-1481	-3311	-5027	-11768
9246	3089	123	-1155	-3311	-5027	-11768
9251	2731	-43	-1204	-3311	-5027	-11768
9256	2243	-83	-643	-3311	-5027	-11768
9261	2016	-61	-215	-3311	-5027	-11768
9266	1979	-54	-95	-3311	-5027	-11768
9271	1970	-49	-119	-3976	-2120	-12440
9276	1965	-51	-131	-3976	-2120	-12440
9281	1964	-51	-122	-3976	-2120	-12440
9286	1958	-48	-131	-3976	-2120	-12440
9291	1953	-47	-127	-3976	-2120	-12440
9296	1953	-40	-144	-3976	-2120	-12440
9301	1947	-34	-146	-3976	-2120	-12440
9306	1949	-42	-140	-4057	1109	-12700
9311	1942	-32	-142	-4057	1109	-12700
9316	1942	-31	-146	-4057	1109	-12700
9321	1937	-32	-128	-4057	1109	-12700
9326	1940	-19	-145	-4057	1109	-12700
9331	1938	-22	-151	-4057	1109	-12700
9336	1943	-21	-140	-3332	4041	-11989
9341	1931	-16	-140	-3332	4041	-11989
9346	1937	-10	-147	-3332	4041	-11989
9351	1935	-17	-144	-3332	4041	-11989
9356	1934	-11	-149	-3332	4041	-11989
9361	1934	1	-145	-3332	4041	-11989
9366	1938	-3	-147	-2149	6092	-11138
9371	1937	10	-146	-2149	6092	-11138
9376	1941	6	-154	-2149	6092	-11138
9381	1939	9	-146	-2149	6092	-11138
9386	1941	13	-138	-2149	6092	-11138
9391	1945	10	-146	-2149	6092	-11138
9396	1951	10	-139	-780	7205	-10502
9401	1954	12	-138	-780	7205	-10502
9406	1951	9	-144	-780	7205	-10502
9411	1958	16	-123	-780	7205	-10502
9416	1953	16	-122	-780	7205	-10502
9421	1956	27	-118	-780	7205	-10502
9426	1958	20	-121	484	7190	-10322
9431	1950	19	-139	484	7190	-10322
9436	1949	15	-115	484	7190	-10322
9441	1949	13	-111	484	7190	-10322
9446	1946	18	-116	484	7190	-10322
9451	1954	20	-91	484	7190	-10322
9456	1942	11	-89	484	7190	-10322
9461	1943	6	-97	6055	-1123	2632
9466	1936	14	-80	6055	-1123	2632
9471	1930	7	-90	6055	-1123	2632
9476	53	21902	14513	6055	-1123	2632
9481	-4590	2606	259	6055	-1123	2632
9486	-1170	1952	621	6055	-1123	2632
9491	-385	751	216	1354	-1823	3559
9496	-355	1783	169	1354	-1823	3559
9501	197	2329	1129	1354	-1823	3559
9506	-440	2788	862	1354	-1823	3559
9511	-1882	3271	509	1354	-1823	3559
9516	-801	2875	-488	1354	-1823	3559
9521	466	2930	257	-2715	-336	963
9526	335	3271	355	-2715	-336	963
9531	210	3015	847	-2715	-336	963
9536	152	2467	1528	-2715	-336	963
9541	-52	1955	1408	-2715	-336	963
9546	-55	1559	930	-2715	-336	963
9551	-15	1103	620	6914	449	3188
9556	-25	942	652	6914	449	3188
9561	410	947	1285	6914	449	3188
9566	147	861	1466	6914	449	3188
9571	-22	877	1418	6914	449	3188
9576	-136	822	1202	6914	449	3188
9581	66	834	945	-1707	1159	3115
9586	421	949	660	-1707	1159	3115
9591	757	1046	112	-1707	1159	3115
9596	804	1365	-565	-1707	1159	3115
9601	881	1660	-1131	-1707	1159	3115
9606	1144	1911	-1628	-1707	1159	3115
9611	1351	2188	-1809	-1707	1159	3115
9616	1064	2328	-1526	-366	-166	2245
9621	883	2175	-1023	-366	-166	2245
9626	803	1949	-575	-366	-166	2245
9631	666	1476	-207	-366	-166	2245
9636	567	919	186	-366	-166	2245
9641	777	490	601	-366	-166	2245
9646	1119	364	901	-1349	2613	4514
9651	1555	462	1059	-1349	2613	4514
9656	1855	1032	883	-1349	2613	4514
9661	2008	2308	477	-1349	2613	4514
9666	2275	2891	124	-1349	2613	4514
9671	2431	3622	-107	-1349	2613	4514
9676	2575	4278	-332	-1030	306	-152
9681	2701	4624	-660	-1030	306	-152
9686	2787	4828	-892	-1030	306	-152
9691	2549	4761	-1176	-1030	306	-152
9696	2383	4608	-1201	-1030	306	-152
9701	2560	4908	-1029	-1030	306	-152
9706	2455	5282	-952	905	-904	-1492
9711	2285	5203	-900	905	-904	-1492
9716	2183	4867	-757	905	-904	-1492
9721	2142	4466	-599	905	-904	-1492
9726	2173	4270	-380	905	-904	-1492
9731	2260	4446	-115	905	-904	-1492
9736	2403	4916	85	2024	-874	-7045
9741	2810	5794	347	2024	-874	-7045
9746	3104	6617	612	2024	-874	-7045
9751	3351	7127	175	2024	-874	-7045
9756	3557	7095	-463	2024	-874	-7045
9761	3744	6614	-931	2024	-874	-7045
9766	4164	6335	-1218	2024	-874	-7045
9771	4199	5923	-1292	5185	-4963	-11759
9776	4379	5269	-1264	5185	-4963	-11759
9781	4543	5004	-1313	5185	-4963	-11759
9786	4479	4707	-1542	5185	-4963	-11759
9791	4854	4495	-1727	5185	-4963	-11759
9796	4470	3683	-1947	5185	-4963	-11759
9801	3705	2227	-1581	5449	-9838	-10214
9806	3033	883	-918	5449	-9838	-10214
9811	2485	42	-172	5449	-9838	-10214
9816	2392	-63	40	5449	-9838	-10214
9821	2298	-73	8	5449	-9838	-10214
9826	2387	-39	-50	5449	-9838	-10214
9831	2408	-28	-35	3674	-12269	-7203
9836	2404	-14	-42	3674	-12269	-7203
9841	2397	-18	-46	3674	-12269	-7203
9846	2400	-3	-66	3674	-12269	-7203
9851	2397	-13	-60	3674	-12269	-7203
9856	2396	-5	-60	3674	-12269	-7203
9861	2399	-1	-59	2214	-13292	-4803
9866	2404	0	-38	2214	-13292	-4803
9871	2401	-2	-59	2214	-13292	-4803
9876	2392	2	-41	2214	-13292	-4803
9881	2390	1	-37	2214	-13292	-4803
9886	2389	1	-58	2214	-13292	-4803
9891	2389	-4	-49	1160	-13679	-3256
9896	2385	-1	-51	1160	-13679	-3256
9901	2385	-10	-69	1160	-13679	-3256
9906	2382	-3	-56	1160	-13679	-3256
9911	2383	-8	-58	1160	-13679	-3256
9916	2381	-5	-51	1160	-13679	-3256
9921	2378	3	-57	1160	-13679	-3256
9926	2380	-2	-54	365	-13719	-2519
9931	2375	0	-45	365	-13719	-2519
9936	2374	3	-44	365	-13719	-2519
9941	2366	-9	-59	365	-13719	-2519
9946	2373	-2	-49	365	-13719	-2519
9951	2369	-9	-55	365	-13719	-2519
9956	2363	-12	-54	-291	-13777	-2441
9961	2361	0	-72	-291	-13777	-2441
9966	2359	-16	-79	-291	-13777	-2441
9971	2356	-8	-75	-291	-13777	-2441
9976	2357	-2	-78	-291	-13777	-2441
9981	2355	-10	-84	-291	-13777	-2441
9986	2351	-3	-78	-895	-13553	-2881
9991	2342	-8	-95	-895	-13553	-2881
9996	2347	-10	-86	-895	-13553	-2881
10001	2336	-20	-89	-895	-13553	-2881
10006	2338	-15	-95	-895	-13553	-2881
10011	2332	-14	-94	-895	-13553	-2881
10016	2319	-26	-113	-20421	9729	825
10021	2300	-20	-104	-20421	9729	825
10026	2294	-26	-98	-20421	9729	825
10031	2283	-28	-102	-20421	9729	825
10036	2272	-29	-106	-20421	9729	825
10041	-15106	-5712	11497	-20421	9729	825
10046	-662	-37	747	305	1281	4353
10051	542	1437	132	305	1281	4353
10056	-681	6025	-4227	305	1281	4353
10061	971	-1293	-1086	305	1281	4353
10066	-1206	2016	-4389	305	1281	4353
10071	-406	2167	-6209	305	1281	4353
10076	2148	1719	-5709	305	1281	4353
10081	2688	2735	-5119	-3327	-3246	540
10086	1161	3270	-4800	-3327	-3246	540
10091	459	3478	-3230	-3327	-3246	540
10096	30	2892	-1410	-3327	-3246	540
10101	-440	1843	-188	-3327	-3246	540
10106	-579	602	1301	-3327	-3246	540
10111	-416	-576	2897	991	3181	3997
10116	-510	-640	2961	991	3181	3997
10121	-723	-198	2242	991	3181	3997
10126	-611	528	1553	991	3181	3997
10131	-73	1103	758	991	3181	3997
10136	619	1643	-31	991	3181	3997
10141	880	1674	-884	-3940	948	2744
10146	837	1658	-1221	-3940	948	2744
10151	715	1661	-1239	-3940	948	2744
10156	550	1600	-1127	-3940	948	2744
10161	594	1466	-856	-3940	948	2744
10166	724	1380	-525	-3940	948	2744
10171	1132	1417	138	1008	2910	4404
10176	1728	1368	546	1008	2910	4404
10181	1921	1426	614	1008	2910	4404
10186	1983	1528	531	1008	2910	4404
10191	1949	1578	249	1008	2910	4404
10196	1881	1612	-182	1008	2910	4404
10201	1943	1816	-645	75	2613	3090
10206	1979	2133	-953	75	2613	3090
10211	2003	2334	-1027	75	2613	3090
10216	1979	2756	-1007	75	2613	3090
10221	2043	3294	-944	75	2613	3090
10226	2116	3664	-716	75	2613	3090
10231	2273	3867	-540	75	2613	3090
10236	2409	3950	-663	-235	1871	244
10241	2491	3934	-888	-235	1871	244
10246	2849	3993	-1158	-235	1871	244
10251	2930	4163	-1547	-235	1871	244
10256	2439	3994	-2005	-235	1871	244
10261	2453	3981	-2283	-235	1871	244
10266	2535	4241	-2424	1515	-571	-988
10271	2438	4501	-2634	1515	-571	-988
10276	2333	4538	-2689	1515	-571	-988
10281	2224	4507	-2620	1515	-571	-988
10286	2208	4568	-2407	1515	-571	-988
10291	2270	4837	-2150	1515	-571	-988
10296	2222	5088	-1996	720	-1494	-5999
10301	2506	5608	-1842	720	-1494	-5999
10306	2887	6261	-1744	720	-1494	-5999
10311	3125	6803	-1818	720	-1494	-5999
10316	3406	6736	-1896	720	-1494	-5999
10321	3479	6151	-1904	720	-1494	-5999
10326	3648	5627	-1746	4248	-3698	-8737
10331	3934	5253	-1506	4248	-3698	-8737
10336	4218	5351	-1379	4248	-3698	-8737
10341	4438	5463	-1600	4248	-3698	-8737
10346	4510	5275	-1882	4248	-3698	-8737
10351	4601	4828	-2036	4248	-3698	-8737
10356	4630	4021	-1926	680	-7387	-9966
10361	4231	3011	-1552	680	-7387	-9966
10366	4195	1980	-1148	680	-7387	-9966
10371	3623	965	-578	680	-7387	-9966
10376	2686	52	-299	680	-7387	-9966
10381	2027	-70	-183	680	-7387	-9966
10386	1916	-59	-87	680	-7387	-9966
10391	1863	-27	-81	-755	-7246	-9938
10396	1827	-69	-84	-755	-7246	-9938
10401	1847	-46	-103	-755	-7246	-9938
10406	1832	-48	-113	-755	-7246	-9938
10411	1826	-48	-99	-755	-7246	-9938
10416	1828	-43	-99	-755	-7246	-9938
10421	1833	-41	-114	-1995	-6337	-10595
10426	1830	-37	-115	-1995	-6337	-10595
10431	1835	-45	-107	-1995	-6337	-10595
10436	1816	-56	-98	-1995	-6337	-10595
10441	1816	-41	-113	-1995	-6337	-10595
10446	1819	-52	-107	-1995	-6337	-10595
10451	1807	-51	-108	-3085	-4535	-11346
10456	1814	-54	-113	-3085	-4535	-11346
10461	1804	-60	-116	-3085	-4535	-11346
10466	1804	-52	-113	-3085	-4535	-11346
10471	1804	-58	-116	-3085	-4535	-11346
10476	1795	-63	-115	-3085	-4535	-11346
10481	1799	-57	-117	-3696	-1933	-12042
10486	1794	-54	-120	-3696	-1933	-12042
10491	1794	-60	-126	-3696	-1933	-12042
10496	1787	-56	-143	-3696	-1933	-12042
10501	1785	-55	-127	-3696	-1933	-12042
10506	1781	-55	-130	-3696	-1933	-12042
10511	1778	-54	-129	-3731	990	-12065
10516	1779	-49	-130	-3731	990	-12065
10521	1772	-46	-141	-3731	990	-12065
10526	1766	-34	-149	-3731	990	-12065
10531	1777	-25	-134	-3731	990	-12065
10536	1767	-33	-148	-3731	990	-12065
10541	1763	-14	-135	-3731	990	-12065
10546	1766	-19	-144	-3101	3555	-11658
10551	1769	-21	-150	-3101	3555	-11658
10556	1765	-9	-150	-3101	3555	-11658
10561	1766	-6	-147	-3101	3555	-11658
10566	1763	-2	-135	-3101	3555	-11658
10571	1770	-3	-127	-3101	3555	-11658
10576	1757	5	-134	-2266	5498	-10641
10581	1767	6	-136	-2266	5498	-10641
10586	1763	8	-123	-2266	5498	-10641
10591	1763	14	-136	-2266	5498	-10641
10596	1774	12	-117	-2266	5498	-10641
10601	1763	15	-115	-2266	5498	-10641
10606	1752	22	-122	19155	-2124	1400
10611	1755	32	-116	19155	-2124	1400
10616	1745	22	-116	19155	-2124	1400
10621	2889	14872	13388	19155	-2124	1400
10626	-1429	2410	1685	19155	-2124	1400
10631	-733	1856	-340	19155	-2124	1400
10636	-1567	230	567	12137	4237	5243
10641	-1513	-6447	-2017	12137	4237	5243
10646	-386	-835	-127	12137	4237	5243
10651	-196	2326	373	12137	4237	5243
10656	252	1496	-272	12137	4237	5243
10661	920	1664	-984	12137	4237	5243
10666	1034	2259	-1735	-4130	1022	201
10671	1015	2150	-2745	-4130	1022	201
10676	1791	1777	-4239	-4130	1022	201
10681	494	1582	-3111	-4130	1022	201
10686	880	1941	-3167	-4130	1022	201
10691	799	2008	-2443	-4130	1022	201
10696	762	1999	-1554	-4130	1022	201
10701	773	1399	-1026	-2139	1540	2847
10706	811	833	-770	-2139	1540	2847
10711	756	400	-714	-2139	1540	2847
10716	990	201	-641	-2139	1540	2847
10721	1241	233	-306	-2139	1540	2847
10726	1403	544	-275	-2139	1540	2847
10731	1282	936	-518	-932	83	2658
10736	1276	1471	-945	-932	83	2658
10741	1367	2067	-1313	-932	83	2658
10746	1248	2359	-1478	-932	83	2658
10751	1424	2501	-1271	-932	83	2658
10756	1759	2596	-917	-932	83	2658
10761	2393	2555	-366	-1077	1027	1953
10766	2833	2634	123	-1077	1027	1953
10771	2817	3209	234	-1077	1027	1953
10776	1996	3431	-583	-1077	1027	1953
10781	1574	3311	-1232	-1077	1027	1953
10786	1447	3428	-1517	-1077	1027	1953
10791	1497	3584	-1495	288	560	1678
10796	1712	3473	-1219	288	560	1678
10801	1810	3230	-1129	288	560	1678
10806	1716	3022	-1375	288	560	1678
10811	1571	2987	-1674	288	560	1678
10816	1538	3112	-2025	288	560	1678
10821	1422	3350	-2204	-428	-1024	-1816
10826	1573	3798	-2120	-428	-1024	-1816
10831	1882	4176	-1992	-428	-1024	-1816
10836	2186	4448	-1823	-428	-1024	-1816
10841	2012	4310	-1728	-428	-1024	-1816
10846	1738	3865	-1952	-428	-1024	-1816
10851	1966	3904	-2238	-428	-1024	-1816
10856	2106	4156	-2410	1831	-1623	-3439
10861	2183	4449	-2433	1831	-1623	-3439
10866	2333	5040	-2166	1831	-1623	-3439
10871	2347	5317	-1800	1831	-1623	-3439
10876	2391	5197	-1326	1831	-1623	-3439
10881	2483	4894	-1188	1831	-1623	-3439
10886	2678	4788	-1510	208	-4588	-7356
10891	2772	4998	-2224	208	-4588	-7356
10896	2878	5430	-2949	208	-4588	-7356
10901	3124	5811	-3496	208	-4588	-7356
10906	3519	6251	-3673	208	-4588	-7356
10911	3939	6814	-3481	208	-4588	-7356
10916	4075	6764	-3020	4199	-8129	-10861
10921	4542	6301	-2884	4199	-8129	-10861
10926	4919	5463	-2693	4199	-8129	-10861
10931	5111	4180	-2412	4199	-8129	-10861
10936	4854	3049	-2110	4199	-8129	-10861
10941	4577	2141	-1718	4199	-8129	-10861
10946	4025	1228	-1276	2915	-9637	-9004
10951	3601	418	-674	2915	-9637	-9004
10956	3564	-126	227	2915	-9637	-9004
10961	3626	-126	458	2915	-9637	-9004
10966	3678	-24	746	2915	-9637	-9004
10971	3124	-24	1057	2915	-9637	-9004
10976	2544	-42	454	15031	11047	-1508
10981	2008	-252	1280	15031	11047	-1508
10986	1992	-4758	4023	15031	11047	-1508
10991	3459	-5104	6515	15031	11047	-1508
10996	731	-1834	5861	15031	11047	-1508
11001	-1969	1444	6995	15031	11047	-1508
11006	3125	3902	2170	15031	11047	-1508
11011	3406	305	-3714	569	-4152	2506
11016	2432	-2721	-6636	569	-4152	2506
11021	1475	-3876	-7652	569	-4152	2506
11026	2075	-3962	-7693	569	-4152	2506
11031	1289	-3858	-6302	569	-4152	2506
11036	414	-2559	-2776	569	-4152	2506
11041	501	-865	1611	-414	2639	-946
11046	-16	949	5479	-414	2639	-946
11051	-388	2231	6754	-414	2639	-946
11056	-451	2534	6011	-414	2639	-946
11061	-780	2167	3932	-414	2639	-946
11066	-1198	852	1457	-414	2639	-946
11071	-1416	-312	-481	-1803	-101	629
11076	-1075	-821	-1616	-1803	-101	629
11081	-1277	-777	-2018	-1803	-101	629
11086	-1087	-551	-2112	-1803	-101	629
11091	-1185	-28	-2146	-1803	-101	629
11096	-1220	714	-2159	-1803	-101	629
11101	-1283	1573	-1888	-1076	-387	-2132
11106	-1423	2003	-1585	-1076	-387	-2132
11111	-1504	1897	-1190	-1076	-387	-2132
11116	-1611	1453	-880	-1076	-387	-2132
11121	-1678	836	-767	-1076	-387	-2132
11126	-1727	110	-834	-1076	-387	-2132
11131	-1849	-517	-1002	535	-269	-212
11136	-1843	-951	-1129	535	-269	-212
11141	-1793	-1159	-1024	535	-269	-212
11146	-1861	-1236	-791	535	-269	-212
11151	-1957	-1174	-598	535	-269	-212
11156	-2067	-1149	-520	535	-269	-212
11161	-2245	-1132	-569	535	-269	-212
11166	-2326	-1083	-646	-689	-556	729
11171	-2310	-816	-672	-689	-556	729
11176	-2268	-270	-722	-689	-556	729
11181	-2106	173	-731	-689	-556	729
11186	-1901	346	-721	-689	-556	729
11191	-1869	475	-569	-689	-556	729
11196	-1802	587	-354	679	694	351
11201	-1736	506	-181	679	694	351
11206	-1755	262	-139	679	694	351
11211	-1755	31	-223	679	694	351
11216	-1842	-120	-432	679	694	351
11221	-1897	-144	-689	679	694	351
11226	-1902	-158	-954	95	-162	726
11231	-1878	-187	-1105	95	-162	726
11236	-1886	-199	-1159	95	-162	726
11241	-1872	-162	-1128	95	-162	726
11246	-1758	-94	-994	95	-162	726
11251	-1733	-54	-767	95	-162	726
11256	-1779	-40	-559	-494	780	1017
11261	-1792	32	-444	-494	780	1017
11266	-1883	20	-430	-494	780	1017
11271	-1962	-80	-401	-494	780	1017
11276	-1945	-203	-484	-494	780	1017
11281	-1962	-336	-621	-494	780	1017
11286	-1939	-422	-778	951	489	1132
11291	-1864	-394	-959	951	489	1132
11296	-1877	-252	-1157	951	489	1132
11301	-1906	10	-1220	951	489	1132
11306	-1922	394	-1049	951	489	1132
11311	-1906	842	-894	951	489	1132
11316	-1817	1077	-737	951	489	1132
11321	-2004	1110	-708	540	-54	575
11326	-2161	877	-885	540	-54	575
11331	-2069	530	-1340	540	-54	575
11336	-1969	157	-1868	540	-54	575
11341	-1999	-220	-1911	540	-54	575
11346	-1920	815	-2893	540	-54	575
11351	-1809	-124	-2186	-1904	-940	928
11356	-1924	172	-1962	-1904	-940	928
11361	-1923	303	-1484	-1904	-940	928
11366	-1904	397	-1135	-1904	-940	928
11371	-1909	520	-882	-1904	-940	928
11376	-1911	568	-728	-1904	-940	928
11381	-1827	529	-651	217	-411	938
11386	-1740	481	-673	217	-411	938
11391	-1692	349	-742	217	-411	938
11396	-1743	332	-757	217	-411	938
11401	-1761	1325	-210	217	-411	938
11406	-1711	1368	-722	217	-411	938
11411	-1834	1532	-795	132	-894	-336
11416	-1781	1696	-1096	132	-894	-336
11421	-1947	1709	-1339	132	-894	-336
11426	-1768	1448	-1079	132	-894	-336
11431	-1626	1136	-1012	132	-894	-336
11436	-1609	832	-874	132	-894	-336
11441	-1572	783	-767	432	-772	-874
11446	-1517	742	-771	432	-772	-874
11451	-1663	741	-896	432	-772	-874
11456	-1719	835	-1042	432	-772	-874
11461	-1648	1031	-1196	432	-772	-874
11466	-1560	931	-842	432	-772	-874
11471	-1489	740	-751	432	-772	-874
11476	-1516	615	-633	1909	-293	-995
11481	-1616	614	-564	1909	-293	-995
11486	-1672	735	-628	1909	-293	-995
11491	-1667	776	-654	1909	-293	-995
11496	-1803	706	-765	1909	-293	-995
11501	-1579	612	-813	1909	-293	-995
11506	-1475	587	-817	209	-544	-1725
11511	-1619	552	-920	209	-544	-1725
11516	-1764	524	-940	209	-544	-1725
11521	-1894	429	-984	209	-544	-1725
11526	-2116	371	-1028	209	-544	-1725
11531	-2208	381	-916	209	-544	-1725
11536	-2338	122	-865	610	328	-96
11541	-2684	-114	-789	610	328	-96
11546	-2647	-279	-616	610	328	-96
11551	-2399	-130	-496	610	328	-96
11556	-2339	45	-445	610	328	-96
11561	-2318	-38	-433	610	328	-96
11566	-2269	-34	-453	586	-597	316
11571	-1904	-62	-418	586	-597	316
11576	-1644	-62	-479	586	-597	316
11581	-1768	152	-555	586	-597	316
11586	-1932	74	-591	586	-597	316
11591	-1730	144	-520	586	-597	316
11596	-1757	110	-549	-1508	-353	118
11601	-1866	93	-605	-1508	-353	118
11606	-2063	166	-714	-1508	-353	118
11611	-2155	168	-677	-1508	-353	118
11616	-2197	208	-615	-1508	-353	118
11621	-2198	266	-485	-1508	-353	118
11626	-2178	203	-425	-1508	-353	118
11631	-2206	167	-521	-422	249	1288
11636	-2441	181	-647	-422	249	1288
11641	-2649	-165	-628	-422	249	1288
11646	-2751	-365	-572	-422	249	1288
11651	-2506	-19	-610	-422	249	1288
11656	-2427	281	-787	-422	249	1288
11661	-1927	551	-1097	-270	-601	374
11666	-1658	328	-1034	-270	-601	374
11671	-1802	391	-660	-270	-601	374
11676	-1979	308	-411	-270	-601	374
11681	-2038	292	-331	-270	-601	374
11686	-1964	314	-295	-270	-601	374
11691	-1803	433	-284	-1355	-577	46
11696	-1912	377	-363	-1355	-577	46
11701	-1959	407	-364	-1355	-577	46
11706	-1935	422	-442	-1355	-577	46
11711	-1819	675	-652	-1355	-577	46
11716	-1733	616	-648	-1355	-577	46
11721	-1937	627	-688	-461	-874	119
11726	-2107	629	-640	-461	-874	119
11731	-2113	372	-680	-461	-874	119
11736	-2134	196	-529	-461	-874	119
11741	-2073	222	-245	-461	-874	119
11746	-2040	346	14	-461	-874	119
11751	-2088	546	119	-147	-399	108
11756	-2213	677	8	-147	-399	108
11761	-2142	666	23	-147	-399	108
11766	-2109	513	-217	-147	-399	108
11771	-2040	516	-388	-147	-399	108
11776	-2059	424	-379	-147	-399	108
11781	-2082	504	-262	-147	-399	108
11786	-2013	471	-154	-1730	-727	1026
11791	-2037	405	-178	-1730	-727	1026
11796	-1956	53	-359	-1730	-727	1026
11801	-1926	149	-254	-1730	-727	1026
11806	-1779	240	-184	-1730	-727	1026
11811	-1826	278	-76	-1730	-727	1026
11816	-1801	300	-194	-985	-599	679
11821	-1802	630	-81	-985	-599	679
11826	-1937	766	14	-985	-599	679
11831	-2091	940	35	-985	-599	679
11836	-2056	1066	150	-985	-599	679
11841	-2026	946	136	-985	-599	679
11846	-1983	891	97	-514	-260	537
11851	-1993	760	40	-514	-260	537
11856	-1941	714	-2	-514	-260	537
11861	-1912	625	98	-514	-260	537
11866	-1898	575	209	-514	-260	537
11871	-1938	700	236	-514	-260	537
11876	-2018	926	220	88	71	193
11881	-2019	1059	158	88	71	193
11886	-1992	846	88	88	71	193
11891	-1971	654	56	88	71	193
11896	-1940	617	37	88	71	193
11901	-1919	698	103	88	71	193
11906	-1910	734	106	-33	-48	133
11911	-1725	924	260	-33	-48	133
11916	-1940	615	119	-33	-48	133
11921	-1861	708	8	-33	-48	133
11926	-1838	818	67	-33	-48	133
11931	-1880	748	25	-33	-48	133
11936	-1888	707	1	-33	-48	133
11941	-1880	750	28	-45	-166	52
11946	-1882	780	43	-45	-166	52
11951	-1881	778	78	-45	-166	52
11956	-1874	768	88	-45	-166	52
11961	-1898	768	109	-45	-166	52
11966	-1902	778	112	-45	-166	52
11971	-1875	818	148	-554	-225	291
11976	-1873	805	213	-554	-225	291
11981	-1862	752	227	-554	-225	291
11986	-1865	736	210	-554	-225	291
11991	-1864	793	177	-554	-225	291
11996	-1871	763	149	-554	-225	291
12001	-1889	766	140	-630	-357	245
12006	-1908	806	115	-630	-357	245
12011	-1974	803	100	-630	-357	245
12016	-1922	815	211	-630	-357	245
12021	-1920	803	248	-630	-357	245
12026	-1947	818	267	-630	-357	245
12031	-1938	859	243	-444	-374	220
12036	-1912	871	219	-444	-374	220
12041	-1882	859	194	-444	-374	220
12046	-1879	779	193	-444	-374	220
12051	-1872	790	236	-444	-374	220
12056	-1843	802	328	-444	-374	220
12061	-1897	804	226	-79	-192	184
12066	-1887	805	282	-79	-192	184
12071	-1842	835	263	-79	-192	184
12076	-1835	877	331	-79	-192	184
12081	-1850	856	319	-79	-192	184
12086	-1807	820	336	-79	-192	184
12091	-1817	817	317	-79	-192	184
12096	-1822	803	341	-37	-126	-36
12101	-1777	841	368	-37	-126	-36
12106	-1757	830	353	-37	-126	-36
12111	-1734	807	329	-37	-126	-36
12116	-1758	838	351	-37	-126	-36
12121	-1768	834	383	-37	-126	-36
12126	-1802	814	428	-13	19	-68
12131	-1829	813	381	-13	19	-68
12136	-1845	787	442	-13	19	-68
12141	-1870	783	426	-13	19	-68
12146	-1883	791	432	-13	19	-68
12151	-1880	827	403	-13	19	-68
12156	-1892	819	381	-92	114	-111
12161	-1870	819	386	-92	114	-111
12166	-1843	813	381	-92	114	-111
12171	-1843	809	383	-92	114	-111
12176	-1835	842	373	-92	114	-111
12181	-1853	848	378	-92	114	-111
12186	-1779	866	422	-26	-62	-7
12191	-1849	765	348	-26	-62	-7
12196	-1817	811	342	-26	-62	-7
12201	-1850	882	329	-26	-62	-7
12206	-1892	887	351	-26	-62	-7
12211	-1870	860	361	-26	-62	-7
12216	-1823	839	363	-84	-104	109
12221	-1824	795	404	-84	-104	109
12226	-1804	776	403	-84	-104	109
12231	-1788	771	405	-84	-104	109
12236	-1789	809	368	-84	-104	109
12241	-1801	858	347	-84	-104	109
12246	-1807	856	349	-84	-104	109
12251	-1805	849	355	-57	-203	14
12256	-1824	857	348	-57	-203	14
12261	-1830	858	339	-57	-203	14
12266	-1820	858	376	-57	-203	14
12271	-1820	829	406	-57	-203	14
12276	-1838	795	430	-57	-203	14
12281	-1824	743	432	-239	-182	-17
12286	-1829	769	435	-239	-182	-17
12291	-1840	790	418	-239	-182	-17
12296	-1864	816	380	-239	-182	-17
12301	-1880	822	371	-239	-182	-17
12306	-1841	840	384	-239	-182	-17
12311	-1754	969	428	-180	-274	-150
12316	-1858	853	306	-180	-274	-150
12321	-1827	902	332	-180	-274	-150
12326	-1829	925	409	-180	-274	-150
12331	-1825	813	470	-180	-274	-150
12336	-1820	751	516	-180	-274	-150
12341	-1851	365	444	-87	-11	-56
12346	-1811	711	599	-87	-11	-56
12351	-1767	808	588	-87	-11	-56
12356	-1810	854	520	-87	-11	-56
12361	-1759	894	555	-87	-11	-56
12366	-1801	803	569	-87	-11	-56
12371	-1783	844	569	-56	-101	33
12376	-1798	811	539	-56	-101	33
12381	-1786	823	509	-56	-101	33
12386	-1799	764	471	-56	-101	33
12391	-1788	721	449	-56	-101	33
12396	-1774	661	470	-56	-101	33
12401	-1765	673	506	-56	-101	33
12406	-1783	759	481	-30	-103	20
12411	-1809	813	512	-30	-103	20
12416	-1819	822	508	-30	-103	20
12421	-1785	818	518	-30	-103	20
12426	-1797	793	538	-30	-103	20
12431	-1785	799	545	-30	-103	20
12436	-1792	812	581	-23	-45	34
12441	-1783	819	578	-23	-45	34
12446	-1788	826	542	-23	-45	34
12451	-1788	804	522	-23	-45	34
12456	-1783	799	515	-23	-45	34
12461	-1782	786	547	-23	-45	34
12466	-1796	772	548	3	-11	-8
12471	-1781	787	500	3	-11	-8
12476	-1790	773	521	3	-11	-8
12481	-1804	783	532	3	-11	-8
12486	-1802	773	528	3	-11	-8
12491	-1784	781	534	3	-11	-8
12496	-1774	796	553	-130	-44	8
12501	-1767	805	523	-130	-44	8
12506	-1776	808	513	-130	-44	8
12511	-1770	814	499	-130	-44	8
12516	-1778	806	502	-130	-44	8
12521	-1773	810	503	-130	-44	8
12526	-1773	810	520	-65	-121	160
12531	-1774	799	532	-65	-121	160
12536	-1804	794	528	-65	-121	160
12541	-1801	807	506	-65	-121	160
12546	-1790	816	551	-65	-121	160
12551	-1776	788	547	-65	-121	160
12556	-1758	801	526	-65	-121	160
12561	-1756	835	527	-84	-64	108
12566	-1763	827	524	-84	-64	108
12571	-1755	813	543	-84	-64	108
12576	-1770	801	539	-84	-64	108
12581	-1749	792	572	-84	-64	108
12586	-1763	809	576	-84	-64	108
12591	-1749	774	586	9	-11	11
12596	-1741	752	544	9	-11	11
12601	-1760	771	540	9	-11	11
12606	-1783	783	532	9	-11	11
12611	-1772	818	581	9	-11	11
12616	-1788	845	554	9	-11	11
12621	-1820	867	548	-244	-196	20
12626	-1816	900	543	-244	-196	20
12631	-1812	910	466	-244	-196	20
12636	-1810	909	471	-244	-196	20
12641	-1749	916	539	-244	-196	20
12646	-1677	865	625	-244	-196	20
12651	-1589	725	689	214	242	408
12656	-1569	621	730	214	242	408
12661	-1617	588	752	214	242	408
12666	-1604	606	749	214	242	408
12671	-1649	659	728	214	242	408
12676	-1700	740	641	214	242	408
12681	-1695	956	628	-6	-19	-62
12686	-1823	974	508	-6	-19	-62
12691	-1836	1133	464	-6	-19	-62
12696	-1810	998	421	-6	-19	-62
12701	-1827	966	499	-6	-19	-62
12706	-1837	937	417	-6	-19	-62
12711	-1774	911	424	-6	-19	-62
12716	-1748	890	456	8	-58	-55
12721	-1807	903	505	8	-58	-55
12726	-1817	932	530	8	-58	-55
12731	-1837	926	535	8	-58	-55
12736	-1835	923	569	8	-58	-55
12741	-1811	946	597	8	-58	-55
12746	-1816	954	591	6	38	-116
12751	-1791	942	572	6	38	-116
12756	-1752	891	590	6	38	-116
12761	-1722	835	635	6	38	-116
12766	-1695	798	673	6	38	-116
12771	-1627	696	639	6	38	-116
12776	-1642	707	620	-4	108	81
12781	-1665	759	630	-4	108	81
12786	-1675	800	610	-4	108	81
12791	-1706	858	604	-4	108	81
12796	-1754	923	565	-4	108	81
12801	-1737	940	514	-4	108	81
12806	-1710	898	539	0	-81	11
12811	-1695	878	556	0	-81	11
12816	-1685	885	536	0	-81	11
12821	-1726	912	542	0	-81	11
12826	-1736	931	535	0	-81	11
12831	-1759	905	540	0	-81	11
12836	-1761	875	535	-19	-38	4
12841	-1767	892	582	-19	-38	4
12846	-1768	906	592	-19	-38	4
12851	-1780	924	573	-19	-38	4
12856	-1785	952	550	-19	-38	4
12861	-1762	941	550	-19	-38	4
12866	-1749	905	544	-19	-38	4
12871	-1724	870	528	-40	-92	53
12876	-1735	864	559	-40	-92	53
12881	-1733	854	571	-40	-92	53
12886	-1746	835	575	-40	-92	53
12891	-1759	864	572	-40	-92	53
12896	-1752	865	564	-40	-92	53
12901	-1725	852	580	-41	-74	-54
12906	-1712	838	575	-41	-74	-54
12911	-1729	861	563	-41	-74	-54
12916	-1711	889	580	-41	-74	-54
12921	-1715	911	586	-41	-74	-54
12926	-1727	915	593	-41	-74	-54
12931	-1739	912	581	-63	15	14
12936	-1735	907	561	-63	15	14
12941	-1730	901	578	-63	15	14
12946	-1719	874	583	-63	15	14
12951	-1726	855	585	-63	15	14
12956	-1706	850	579	-63	15	14
12961	-1724	860	593	-19	1	-61
12966	-1715	840	605	-19	1	-61
12971	-1712	840	618	-19	1	-61
12976	-1705	851	631	-19	1	-61
12981	-1708	870	624	-19	1	-61
12986	-1700	866	616	-19	1	-61
12991	-1688	855	609	-23	14	-87
12996	-1688	870	616	-23	14	-87
13001	-1672	866	586	-23	14	-87
13006	-1684	881	590	-23	14	-87
13011	-1703	890	553	-23	14	-87
13016	-1727	894	575	-23	14	-87
13021	-1727	864	577	-23	14	-87
13026	-1723	847	582	9	11	17
13031	-1740	861	589	9	11	17
13036	-1749	896	583	9	11	17
13041	-1741	876	569	9	11	17
13046	-1739	855	577	9	11	17
13051	-1726	856	603	9	11	17
13056	-1748	873	600	-26	33	-39
13061	-1746	863	596	-26	33	-39
13066	-1744	880	565	-26	33	-39
13071	-1752	903	585	-26	33	-39
13076	-1750	875	597	-26	33	-39
13081	-1746	863	606	-26	33	-39
13086	-1741	880	608	-29	5	-58
13091	-1729	858	619	-29	5	-58
13096	-1718	860	618	-29	5	-58
13101	-1728	880	600	-29	5	-58
13106	-1719	896	596	-29	5	-58
13111	-1711	874	601	-29	5	-58
13116	-1708	875	595	-59	62	-43
13121	-1721	892	571	-59	62	-43
13126	-1736	877	569	-59	62	-43
13131	-1748	870	589	-59	62	-43
13136	-1758	863	563	-59	62	-43
13141	-1758	864	577	-59	62	-43
13146	-1753	858	565	-56	-21	8
13151	-1750	861	579	-56	-21	8
13156	-1739	854	589	-56	-21	8
13161	-1732	855	587	-56	-21	8
13166	-1743	858	588	-56	-21	8
13171	-1740	876	595	-56	-21	8
13176	-1727	861	605	-56	-21	8
13181	-1721	829	621	-111	-43	-102
13186	-1721	845	587	-111	-43	-102
13191	-1737	870	579	-111	-43	-102
13196	-1765	898	504	-111	-43	-102
13201	-1778	864	557	-111	-43	-102
13206	-1749	849	590	-111	-43	-102
13211	-1731	828	609	-12	-5	131
13216	-1705	787	621	-12	-5	131
13221	-1690	809	608	-12	-5	131
13226	-1710	861	598	-12	-5	131
13231	-1706	862	578	-12	-5	131
13236	-1731	873	572	-12	-5	131
13241	-1745	868	575	-28	-4	14
13246	-1738	853	574	-28	-4	14
13251	-1761	903	582	-28	-4	14
13256	-1756	906	561	-28	-4	14
13261	-1746	885	589	-28	-4	14
13266	-1738	866	602	-28	-4	14
13271	-1727	855	599	-25	43	-29
13276	-1739	850	590	-25	43	-29
13281	-1734	848	585	-25	43	-29
13286	-1732	857	600	-25	43	-29
13291	-1738	868	592	-25	43	-29
13296	-1745	872	601	-25	43	-29
13301	-1758	871	596	-22	-9	74
13306	-1742	874	573	-22	-9	74
13311	-1732	878	564	-22	-9	74
13316	-1739	879	544	-22	-9	74
13321	-1739	881	560	-22	-9	74
13326	-1740	876	598	-22	-9	74
13331	-1733	842	596	-22	-9	74
13336	-1730	851	590	-32	19	-68
13341	-1734	851	608	-32	19	-68
13346	-1734	848	613	-32	19	-68
13351	-1718	845	607	-32	19	-68
13356	-1708	841	622	-32	19	-68
13361	-1700	862	630	-32	19	-68
13366	-1682	861	601	-6	-13	30
13371	-1683	890	578	-6	-13	30
13376	-1702	900	571	-6	-13	30
13381	-1708	876	561	-6	-13	30
13386	-1719	875	555	-6	-13	30
13391	-1731	878	566	-6	-13	30
13396	-1742	860	557	-22	8	-48
13401	-1737	850	558	-22	8	-48
13406	-1739	837	583	-22	8	-48
13411	-1737	832	600	-22	8	-48
13416	-1711	803	600	-22	8	-48
13421	-1711	817	623	-22	8	-48
13426	-1722	834	632	-29	84	59
13431	-1725	842	589	-29	84	59
13436	-1750	870	602	-29	84	59
13441	-1770	905	582	-29	84	59
13446	-1780	925	569	-29	84	59
13451	-1791	916	542	-29	84	59
13456	-1791	914	565	-58	13	-21
13461	-1779	896	567	-58	13	-21
13466	-1767	875	568	-58	13	-21
13471	-1741	847	599	-58	13	-21
13476	-1732	853	589	-58	13	-21
13481	-1727	854	597	-58	13	-21
13486	-1705	843	602	-58	13	-21
13491	-1726	858	610	-110	3	-26
13496	-1742	861	600	-110	3	-26
13501	-1747	886	597	-110	3	-26
13506	-1756	868	589	-110	3	-26
13511	-1767	883	566	-110	3	-26
13516	-1765	894	569	-110	3	-26
13521	-1747	870	579	-87	-5	14
13526	-1755	867	583	-87	-5	14
13531	-1763	887	565	-87	-5	14
13536	-1754	865	590	-87	-5	14
13541	-1738	850	586	-87	-5	14
13546	-1740	855	563	-87	-5	14
13551	-1737	861	558	-54	2	-111
13556	-1731	851	587	-54	2	-111
13561	-1717	859	568	-54	2	-111
13566	-1723	842	594	-54	2	-111
13571	-1725	841	576	-54	2	-111
13576	-1721	843	589	-54	2	-111
13581	-1722	857	602	-74	21	118
13586	-1743	865	585	-74	21	118
13591	-1738	852	599	-74	21	118
13596	-1736	839	588	-74	21	118
13601	-1733	840	612	-74	21	118
13606	-1730	810	627	-74	21	118
13611	-1727	828	589	-65	13	-32
13616	-1729	866	580	-65	13	-32
13621	-1747	872	582	-65	13	-32
13626	-1750	877	587	-65	13	-32
13631	-1739	882	589	-65	13	-32
13636	-1721	868	603	-65	13	-32
13641	-1721	852	590	-65	13	-32
14001	-1564	-624	822	-16485	-2453	-4
14006	142	-537	435	-16485	-2453	-4
14011	425	150	-1818	-16485	-2453	-4
14016	463	-14	-203	-1317	-1094	-1709
14021	1013	-438	1712	-1317	-1094	-1709
14026	1764	-517	2064	-1317	-1094	-1709
14031	1606	-779	2094	-1317	-1094	-1709
14036	1097	-1183	2874	-1317	-1094	-1709
14041	872	-1797	3478	-1317	-1094	-1709
14046	733	-1948	2896	-5174	-2812	-489
14051	465	-1994	1488	-5174	-2812	-489
14056	371	-1532	-273	-5174	-2812	-489
14061	454	-770	-1660	-5174	-2812	-489
14066	653	-709	-2256	-5174	-2812	-489
14071	786	-876	-2102	-5174	-2812	-489
14076	985	-1057	-1515	-6470	-2820	-3276
14081	1326	-983	-899	-6470	-2820	-3276
14086	1630	-697	-382	-6470	-2820	-3276
14091	1683	-209	344	-6470	-2820	-3276
14096	1968	135	1118	-6470	-2820	-3276
14101	2101	263	1574	-6470	-2820	-3276
14106	1937	-38	1685	-6470	-2820	-3276
14111	1745	-559	1546	-4374	1457	-6631
14116	1598	-1138	1280	-4374	1457	-6631
14121	1494	-1599	977	-4374	1457	-6631
14126	1670	-1847	406	-4374	1457	-6631
14131	2116	-1818	19	-4374	1457	-6631
14136	2461	-1792	-193	-4374	1457	-6631
14141	3533	-2364	-402	-293	-947	-721
14146	6052	-4502	-1569	-293	-947	-721
14151	5753	-6748	-1702	-293	-947	-721
14156	1411	-5891	228	-293	-947	-721
14161	1338	-5375	818	-293	-947	-721
14166	2174	-5217	787	-293	-947	-721
14171	2261	-4484	598	350	-255	433
14176	2365	-3872	508	350	-255	433
14181	2435	-4012	511	350	-255	433
14186	2288	-4589	718	350	-255	433
14191	2221	-5059	976	350	-255	433
14196	2291	-5304	1126	350	-255	433
14201	2291	-5367	1174	-266	-409	4965
14206	2396	-5271	985	-266	-409	4965
14211	2649	-5264	608	-266	-409	4965
14216	2854	-5586	241	-266	-409	4965
14221	3132	-5927	-23	-266	-409	4965
14226	3373	-6016	-186	-266	-409	4965
14231	3726	-5935	-144	1782	1033	8908
14236	3998	-5500	148	1782	1033	8908
14241	4155	-4988	441	1782	1033	8908
14246	4091	-4900	705	1782	1033	8908
14251	4128	-4880	776	1782	1033	8908
14256	4212	-4721	734	1782	1033	8908
14261	4407	-4418	686	1782	1033	8908
14266	4340	-4123	729	3000	4195	12751
14271	3959	-3822	402	3000	4195	12751
14276	4126	-3569	199	3000	4195	12751
14281	3687	-2648	126	3000	4195	12751
14286	3384	-1512	80	3000	4195	12751
14291	2770	-481	14	3000	4195	12751
14296	2299	-44	-127	1704	6163	12116
14301	2265	-50	-138	1704	6163	12116
14306	2264	-57	-121	1704	6163	12116
14311	2262	-53	-107	1704	6163	12116
14316	2266	-62	-105	1704	6163	12116
14321	2261	-71	-99	1704	6163	12116
14326	2264	-67	-97	225	7054	11841
14331	2261	-64	-91	225	7054	11841
14336	2262	-73	-80	225	7054	11841
14341	2258	-57	-101	225	7054	11841
14346	2252	-70	-100	225	7054	11841
14351	2257	-74	-96	225	7054	11841
14356	2259	-63	-89	-1303	6633	12058
14361	2262	-60	-94	-1303	6633	12058
14366	2258	-53	-89	-1303	6633	12058
14371	2254	-52	-92	-1303	6633	12058
14376	2250	-53	-100	-1303	6633	12058
14381	2251	-60	-89	-1303	6633	12058
14386	2245	-53	-99	-2671	5053	12531
14391	2244	-60	-86	-2671	5053	12531
14396	2249	-48	-92	-2671	5053	12531
14401	2243	-47	-85	-2671	5053	12531
14406	2243	-48	-95	-2671	5053	12531
14411	2240	-43	-87	-2671	5053	12531
14416	2242	-55	-104	-2671	5053	12531
14421	2232	-55	-94	-3663	2523	13313
14426	2240	-50	-102	-3663	2523	13313
14431	2250	-51	-90	-3663	2523	13313
14436	2237	-52	-93	-3663	2523	13313
14441	2242	-49	-92	-3663	2523	13313
14446	2244	-52	-105	-3663	2523	13313
14451	2238	-51	-100	-3952	-575	13403
14456	2249	-54	-98	-3952	-575	13403
14461	2244	-50	-100	-3952	-575	13403
14466	2239	-65	-102	-3952	-575	13403
14471	2242	-61	-104	-3952	-575	13403
14476	2245	-61	-117	-3952	-575	13403
14481	2240	-63	-111	-3632	-3562	12987
14486	2243	-67	-127	-3632	-3562	12987
14491	2240	-61	-111	-3632	-3562	12987
14496	2236	-66	-105	-3632	-3562	12987
14501	2228	-60	-126	-3632	-3562	12987
14506	2226	-62	-140	-3632	-3562	12987
14511	2221	-52	-124	-21184	8260	-5494
14516	2223	-52	-122	-21184	8260	-5494
14521	2214	-44	-138	-21184	8260	-5494
14526	2200	-39	-122	-21184	8260	-5494
14531	-14871	7338	-1792	-21184	8260	-5494
14536	-5296	-907	2113	-21184	8260	-5494
14541	-2111	-40	538	1421	11208	-480
14546	537	194	86	1421	11208	-480
14551	1162	-511	-1033	1421	11208	-480
14556	2625	-33	-535	1421	11208	-480
14561	3513	-437	-1084	1421	11208	-480
14566	3207	-590	-1456	1421	11208	-480
14571	6520	92	-3430	1421	11208	-480
14576	8236	-13	-4846	-4067	-1302	1250
14581	5752	-1209	-7348	-4067	-1302	1250
14586	1963	-1803	-7922	-4067	-1302	1250
14591	2058	-1229	-7341	-4067	-1302	1250
14596	2458	114	-6558	-4067	-1302	1250
14601	1692	1153	-5465	-4067	-1302	1250
14606	1917	1596	-3961	-1232	376	-166
14611	1908	1678	-2624	-1232	376	-166
14616	1723	1552	-1468	-1232	376	-166
14621	1608	1342	-720	-1232	376	-166
14626	1394	1104	81	-1232	376	-166
14631	1113	1040	523	-1232	376	-166
14636	1169	1104	641	-2652	2099	-973
14641	1326	1127	329	-2652	2099	-973
14646	1260	1116	-420	-2652	2099	-973
14651	1093	1053	-1083	-2652	2099	-973
14656	1426	829	-1575	-2652	2099	-973
14661	1457	506	-1969	-2652	2099	-973
14666	1749	59	-2232	-956	1404	1649
14671	1761	-255	-2342	-956	1404	1649
14676	1812	-336	-2346	-956	1404	1649
14681	1569	-326	-2202	-956	1404	1649
14686	1553	-303	-1860	-956	1404	1649
14691	1785	-233	-1525	-956	1404	1649
14696	1553	-103	-1125	1034	3596	2128
14701	1371	134	-891	1034	3596	2128
14706	1419	421	-882	1034	3596	2128
14711	1816	838	-1227	1034	3596	2128
14716	2151	1351	-1692	1034	3596	2128
14721	2466	1848	-2164	1034	3596	2128
14726	2644	2185	-2721	1034	3596	2128
14731	2580	2355	-3242	1306	-316	1
14736	2422	2415	-3783	1306	-316	1
14741	2471	2472	-4542	1306	-316	1
14746	2561	2520	-5398	1306	-316	1
14751	2517	2425	-6070	1306	-316	1
14756	2440	2427	-6270	1306	-316	1
14761	2801	2602	-6026	955	-4823	-1413
14766	3111	2683	-5568	955	-4823	-1413
14771	3357	2570	-5235	955	-4823	-1413
14776	3591	2206	-5327	955	-4823	-1413
14781	3739	1656	-5719	955	-4823	-1413
14786	3714	1126	-5975	955	-4823	-1413
14791	3853	838	-5962	-1947	-9545	-1401
14796	4105	727	-5486	-1947	-9545	-1401
14801	4342	803	-4824	-1947	-9545	-1401
14806	4446	954	-4370	-1947	-9545	-1401
14811	4515	1039	-4247	-1947	-9545	-1401
14816	4651	1103	-4794	-1947	-9545	-1401
14821	5028	1236	-5434	-6651	-13853	-9075
14826	5578	1488	-5522	-6651	-13853	-9075
14831	6126	1475	-4872	-6651	-13853	-9075
14836	6045	1002	-3611	-6651	-13853	-9075
14841	6194	520	-2075	-6651	-13853	-9075
14846	5058	252	213	-6651	-13853	-9075
14851	4030	88	649	-9293	-7322	-14544
14856	3353	-150	4	-9293	-7322	-14544
14861	3256	-181	-25	-9293	-7322	-14544
14866	3230	-195	-40	-9293	-7322	-14544
14871	3204	-190	-56	-9293	-7322	-14544
14876	3182	-180	-77	-9293	-7322	-14544
14881	3158	-176	-98	-9293	-7322	-14544
14886	3138	-177	-109	-9917	2175	-15979
14891	3116	-163	-112	-9917	2175	-15979
14896	3090	-141	-142	-9917	2175	-15979
14901	3072	-126	-149	-9917	2175	-15979
14906	3063	-114	-155	-9917	2175	-15979
14911	3046	-91	-171	-9917	2175	-15979
14916	3036	-64	-157	-8188	10608	-12317
14921	3025	-39	-164	-8188	10608	-12317
14926	3023	-21	-169	-8188	10608	-12317
14931	3032	10	-155	-8188	10608	-12317
14936	3028	23	-165	-8188	10608	-12317
14941	3042	27	-143	-8188	10608	-12317
14946	3038	52	-147	-5910	14924	-6705
14951	3054	57	-140	-5910	14924	-6705
14956	3063	71	-127	-5910	14924	-6705
14961	3066	71	-113	-5910	14924	-6705
14966	3084	76	-119	-5910	14924	-6705
14971	3083	77	-106	-5910	14924	-6705
14976	3089	83	-92	-4688	16224	-1779
14981	3090	78	-82	-4688	16224	-1779
14986	3099	75	-66	-4688	16224	-1779
14991	3097	69	-61	-4688	16224	-1779
14996	3105	61	-64	-4688	16224	-1779
15001	3096	57	-55	-4688	16224	-1779
15006	3100	52	-46	-4909	15892	3014
15011	3080	43	-34	-4909	15892	3014
15016	3088	47	-42	-4909	15892	3014
15021	3077	45	-26	-4909	15892	3014
15026	3067	29	-35	-4909	15892	3014
15031	3069	30	-22	-4909	15892	3014
15036	3052	28	-27	-4909	15892	3014
15041	3034	21	-31	-32768	-7721	-4391
15046	-11953	-1746	-9416	-32768	-7721	-4391
15051	-986	-210	-949	-32768	-7721	-4391
15056	1135	-466	228	-32768	-7721	-4391
15061	1207	-494	224	-32768	-7721	-4391
15066	1145	-503	194	-32768	-7721	-4391
15071	-88	-566	411	-9219	8642	5302
15076	-2546	-6411	1632	-9219	8642	5302
15081	-2848	-10237	2660	-9219	8642	5302
15086	-1998	-8949	1653	-9219	8642	5302
15091	1754	-7189	-224	-9219	8642	5302
15096	2844	-5080	-3379	-9219	8642	5302
15101	1512	-4130	-3771	-589	719	-2906
15106	-621	-2123	-4395	-589	719	-2906
15111	-361	2796	-4869	-589	719	-2906
15116	196	6798	-3198	-589	719	-2906
15121	-1568	3746	-602	-589	719	-2906
15126	-2639	2114	802	-589	719	-2906
15131	-1584	1366	812	-1345	3462	-4678
15136	-516	1004	724	-1345	3462	-4678
15141	-228	1040	485	-1345	3462	-4678
15146	145	1044	213	-1345	3462	-4678
15151	433	786	-128	-1345	3462	-4678
15156	476	506	-274	-1345	3462	-4678
15161	516	380	-207	-4993	2694	-2687
15166	543	-646	-655	-4993	2694	-2687
15171	603	-168	-466	-4993	2694	-2687
15176	411	-453	-583	-4993	2694	-2687
15181	777	-425	-803	-4993	2694	-2687
15186	851	-526	-868	-4993	2694	-2687
15191	873	-603	-867	-4993	2694	-2687
15196	775	-757	-837	-2360	5231	991
15201	634	-749	-809	-2360	5231	991
15206	585	-644	-808	-2360	5231	991
15211	885	-531	-859	-2360	5231	991
15216	1279	-430	-797	-2360	5231	991
15221	2047	-407	-1198	-2360	5231	991
15226	3292	-166	-2569	-593	2533	-1745
15231	4648	-23	-3783	-593	2533	-1745
15236	5231	792	-3986	-593	2533	-1745
15241	4595	4054	-3980	-593	2533	-1745
15246	2989	3256	-4931	-593	2533	-1745
15251	2229	772	-4844	-593	2533	-1745
15256	2460	-73	-5110	1	952	229
15261	2423	-487	-5246	1	952	229
15266	2322	-490	-5182	1	952	229
15271	2219	-189	-4751	1	952	229
15276	2212	-131	-4396	1	952	229
15281	2329	-333	-4279	1	952	229
15286	2390	-183	-4713	-1321	-3721	-1224
15291	2396	188	-5348	-1321	-3721	-1224
15296	2282	748	-6164	-1321	-3721	-1224
15301	2320	1454	-6696	-1321	-3721	-1224
15306	2391	1955	-6816	-1321	-3721	-1224
15311	2529	2125	-6635	-1321	-3721	-1224
15316	2716	2146	-6406	857	-7801	-2141
15321	2911	1819	-6071	857	-7801	-2141
15326	3141	1605	-5893	857	-7801	-2141
15331	3237	1492	-5820	857	-7801	-2141
15336	3352	1563	-5710	857	-7801	-2141
15341	3568	1871	-5510	857	-7801	-2141
15346	3935	2022	-5443	857	-7801	-2141
15351	4254	1997	-5529	-5927	-12953	-5125
15356	4807	1813	-5233	-5927	-12953	-5125
15361	5352	1311	-4361	-5927	-12953	-5125
15366	5622	622	-3201	-5927	-12953	-5125
15371	4790	269	-1852	-5927	-12953	-5125
15376	3344	-170	-574	-5927	-12953	-5125
15381	2518	-133	-66	-8503	-8734	-10734
15386	2552	-151	-75	-8503	-8734	-10734
15391	2644	-122	-56	-8503	-8734	-10734
15396	2381	-130	-45	-8503	-8734	-10734
15401	2351	-146	-68	-8503	-8734	-10734
15406	2336	-139	-74	-8503	-8734	-10734
15411	2315	-143	-88	-9674	-1498	-13792
15416	2309	-142	-102	-9674	-1498	-13792
15421	2282	-125	-110	-9674	-1498	-13792
15426	2266	-117	-120	-9674	-1498	-13792
15431	2250	-115	-123	-9674	-1498	-13792
15436	2230	-99	-134	-9674	-1498	-13792
15441	2218	-90	-146	-8972	6519	-12181
15446	2212	-71	-144	-8972	6519	-12181
15451	2192	-67	-144	-8972	6519	-12181
15456	2182	-44	-145	-8972	6519	-12181
15461	2182	-26	-166	-8972	6519	-12181
15466	2190	-8	-157	-8972	6519	-12181
15471	2192	10	-155	-7295	11824	-7536
15476	2192	17	-160	-7295	11824	-7536
15481	2195	36	-154	-7295	11824	-7536
15486	2201	40	-160	-7295	11824	-7536
15491	2202	53	-135	-7295	11824	-7536
15496	2214	66	-130	-7295	11824	-7536
15501	2217	69	-128	-7295	11824	-7536
15506	2217	66	-127	-6143	13784	-2435
15511	2230	79	-116	-6143	13784	-2435
15516	2237	72	-108	-6143	13784	-2435
15521	2237	67	-97	-6143	13784	-2435
15526	2243	70	-86	-6143	13784	-2435
15531	2250	66	-86	-6143	13784	-2435
15536	2251	57	-59	-6195	13729	2673
15541	2253	62	-57	-6195	13729	2673
15546	2247	50	-53	-6195	13729	2673
15551	2246	49	-56	-6195	13729	2673
15556	2255	50	-34	-6195	13729	2673
15561	2242	42	-33	-6195	13729	2673
15566	2235	45	-28	-23959	10527	8519
15571	2241	27	-10	-23959	10527	8519
15576	2227	18	-13	-23959	10527	8519
15581	2221	16	-5	-23959	10527	8519
15586	2208	10	18	-23959	10527	8519
15591	617	4325	9321	-23959	10527	8519
15596	1743	-2	-10	-2733	4028	-6147
15601	-2752	-5817	-427	-2733	4028	-6147
15606	-292	-6175	3405	-2733	4028	-6147
15611	377	-908	-593	-2733	4028	-6147
15616	1196	-443	-436	-2733	4028	-6147
15621	901	-3531	-224	-2733	4028	-6147
15626	1753	-4138	-1851	-6286	3643	2243
15631	2476	-3108	-1310	-6286	3643	2243
15636	2698	-3488	-459	-6286	3643	2243
15641	1632	-3619	-242	-6286	3643	2243
15646	591	-2950	-1074	-6286	3643	2243
15651	286	-1547	-1604	-6286	3643	2243
15656	253	-570	-1393	-6286	3643	2243
15661	497	1818	-2379	-2226	-92	-4433
15666	312	2948	-2576	-2226	-92	-4433
15671	320	2042	-2243	-2226	-92	-4433
15676	513	969	-2218	-2226	-92	-4433
15681	507	-101	-1818	-2226	-92	-4433
15686	809	-792	-1492	-2226	-92	-4433
15691	770	-1124	-1223	-5149	1009	-2298
15696	579	-1288	-1003	-5149	1009	-2298
15701	545	-1227	-1006	-5149	1009	-2298
15706	531	-1145	-1049	-5149	1009	-2298
15711	593	-1119	-1151	-5149	1009	-2298
15716	1135	-867	-1161	-5149	1009	-2298
15721	1290	-671	-962	-3628	3741	516
15726	2055	-490	-1033	-3628	3741	516
15731	3105	-231	-1575	-3628	3741	516
15736	3070	-444	-1657	-3628	3741	516
15741	2613	-577	-1416	-3628	3741	516
15746	2694	278	-1191	-3628	3741	516
15751	2881	1587	-1822	-377	1623	-552
15756	3026	1137	-2786	-377	1623	-552
15761	2808	-61	-3414	-377	1623	-552
15766	2456	-646	-4132	-377	1623	-552
15771	2392	-811	-4867	-377	1623	-552
15776	2572	-731	-5017	-377	1623	-552
15781	2517	-817	-4794	1115	-981	461
15786	2556	-965	-4646	1115	-981	461
15791	2555	-1059	-4736	1115	-981	461
15796	2447	-957	-4964	1115	-981	461
15801	2462	-761	-5045	1115	-981	461
15806	2439	-673	-4950	1115	-981	461
15811	2478	-657	-4908	1115	-981	461
15816	2530	-621	-4983	2611	-5063	2315
15821	2860	-737	-5417	2611	-5063	2315
15826	3445	-1065	-6132	2611	-5063	2315
15831	3659	-1716	-6494	2611	-5063	2315
15836	3890	-2249	-6324	2611	-5063	2315
15841	4264	-2559	-6016	2611	-5063	2315
15846	4541	-2179	-5545	926	-9178	5063
15851	4547	-1839	-5129	926	-9178	5063
15856	4433	-1675	-4650	926	-9178	5063
15861	4545	-1487	-4383	926	-9178	5063
15866	4869	-1662	-4509	926	-9178	5063
15871	5157	-1757	-4448	926	-9178	5063
15876	5514	-1683	-4171	1138	-11658	6365
15881	5938	-1347	-3696	1138	-11658	6365
15886	5807	-933	-2884	1138	-11658	6365
15891	4624	-544	-1821	1138	-11658	6365
15896	3310	-203	-813	1138	-11658	6365
15901	2225	50	-94	1138	-11658	6365
15906	2072	54	-56	2557	-10606	7621
15911	2067	45	-73	2557	-10606	7621
15916	2054	41	-86	2557	-10606	7621
15921	2050	40	-96	2557	-10606	7621
15926	2040	42	-85	2557	-10606	7621
15931	2031	45	-99	2557	-10606	7621
15936	2041	41	-107	4189	-8602	9717
15941	2035	50	-115	4189	-8602	9717
15946	2018	45	-119	4189	-8602	9717
15951	2009	39	-130	4189	-8602	9717
15956	2001	46	-135	4189	-8602	9717
15961	2006	49	-139	4189	-8602	9717
15966	2001	43	-117	4189	-8602	9717
15971	1989	34	-136	5619	-5103	11948
15976	1985	35	-131	5619	-5103	11948
15981	1977	36	-130	5619	-5103	11948
15986	1972	29	-162	5619	-5103	11948
15991	1966	26	-143	5619	-5103	11948
15996	1960	15	-152	5619	-5103	11948
16001	1967	8	-140	6344	-145	12956
16006	1962	10	-144	6344	-145	12956
16011	1962	-4	-140	6344	-145	12956
16016	1959	-12	-153	6344	-145	12956
16021	1959	-17	-137	6344	-145	12956
16026	1958	-26	-152	6344	-145	12956
16031	1957	-30	-139	5812	4652	12058
16036	1967	-46	-148	5812	4652	12058
16041	1971	-49	-147	5812	4652	12058
16046	1982	-60	-153	5812	4652	12058
16051	1975	-62	-145	5812	4652	12058
16056	1991	-72	-124	5812	4652	12058
16061	1986	-72	-120	4470	8340	9940
16066	1994	-77	-110	4470	8340	9940
16071	2001	-82	-108	4470	8340	9940
16076	2008	-89	-106	4470	8340	9940
16081	2013	-88	-104	4470	8340	9940
16086	2012	-81	-94	4470	8340	9940
16091	2014	-90	-88	3078	10353	7728
16096	2012	-83	-96	3078	10353	7728
16101	2015	-78	-60	3078	10353	7728
16106	2023	-73	-61	3078	10353	7728
16111	2008	-71	-46	3078	10353	7728
16116	2010	-67	-37	3078	10353	7728
16121	1995	-62	-40	3078	10353	7728
16126	1754	-209	1149	-30340	159	-10048
16131	1146	-381	-206	-30340	159	-10048
16136	-6389	7406	-7897	-30340	159	-10048
16141	-2429	-8977	3904	-30340	159	-10048
16146	130	-4478	249	-30340	159	-10048
16151	577	-3094	-1614	-30340	159	-10048
16156	316	1154	-2717	-3504	4562	1209
16161	-735	659	-1490	-3504	4562	1209
16166	-678	-4744	-1695	-3504	4562	1209
16171	1579	-5991	-1858	-3504	4562	1209
16176	3303	-4998	-9	-3504	4562	1209
16181	3346	-3581	-630	-3504	4562	1209
16186	2661	-1882	-2574	-3310	2092	-1808
16191	1503	-462	-2688	-3310	2092	-1808
16196	1002	67	-2122	-3310	2092	-1808
16201	739	732	-1992	-3310	2092	-1808
16206	780	958	-1560	-3310	2092	-1808
16211	836	734	-1130	-3310	2092	-1808
16216	695	531	-969	-1857	3459	-2916
16221	952	363	-1022	-1857	3459	-2916
16226	1133	14	-842	-1857	3459	-2916
16231	1258	-251	-568	-1857	3459	-2916
16236	1316	-296	-291	-1857	3459	-2916
16241	1350	-225	-198	-1857	3459	-2916
16246	1689	-148	-295	-2175	4744	-51
16251	2113	-318	-834	-2175	4744	-51
16256	2190	-551	-1165	-2175	4744	-51
16261	2235	-549	-1454	-2175	4744	-51
16266	2573	-569	-1838	-2175	4744	-51
16271	3022	-679	-2320	-2175	4744	-51
16276	3369	-678	-2847	-2175	4744	-51
16281	3806	-275	-3638	223	1105	-226
16286	3359	241	-4420	223	1105	-226
16291	2661	517	-4929	223	1105	-226
16296	2448	639	-5346	223	1105	-226
16301	2622	729	-5493	223	1105	-226
16306	2766	631	-5558	223	1105	-226
16311	2878	470	-5575	663	-1817	345
16316	2858	295	-5573	663	-1817	345
16321	2828	127	-5579	663	-1817	345
16326	2914	19	-5537	663	-1817	345
16331	3013	-98	-5373	663	-1817	345
16336	3216	-108	-5178	663	-1817	345
16341	3797	206	-5105	2949	-6239	934
16346	4379	415	-5501	2949	-6239	934
16351	4821	337	-6053	2949	-6239	934
16356	5004	7	-6583	2949	-6239	934
16361	5121	-447	-6983	2949	-6239	934
16366	4601	-1150	-6599	2949	-6239	934
16371	4280	-1435	-5491	919	-10515	3988
16376	3941	-1263	-4535	919	-10515	3988
16381	3730	-962	-3711	919	-10515	3988
16386	3721	-636	-2981	919	-10515	3988
16391	3753	-348	-2529	919	-10515	3988
16396	3884	-156	-2050	919	-10515	3988
16401	4002	-107	-1839	-12982	-15240	-632
16406	3787	-240	-1796	-12982	-15240	-632
16411	3310	-285	-1678	-12982	-15240	-632
16416	2891	-369	-1449	-12982	-15240	-632
16421	3132	-428	-1596	-12982	-15240	-632
16426	3638	-444	-1789	-12982	-15240	-632
16431	3442	-381	-1117	-12982	-15240	-632
16436	3039	-214	-3	-14624	-10150	-11576
16441	2966	-204	-4	-14624	-10150	-11576
16446	2969	-210	-21	-14624	-10150	-11576
16451	2918	-238	-9	-14624	-10150	-11576
16456	2886	-237	-46	-14624	-10150	-11576
16461	2837	-240	-69	-14624	-10150	-11576
16466	2798	-232	-75	-15319	3505	-14869
16471	2760	-209	-101	-15319	3505	-14869
16476	2714	-185	-104	-15319	3505	-14869
16481	2667	-157	-134	-15319	3505	-14869
16486	2643	-125	-140	-15319	3505	-14869
16491	2620	-87	-141	-15319	3505	-14869
16496	2604	-47	-162	-13448	13886	-6754
16501	2599	-9	-155	-13448	13886	-6754
16506	2595	34	-141	-13448	13886	-6754
16511	2602	56	-124	-13448	13886	-6754
16516	2605	81	-122	-13448	13886	-6754
16521	2618	98	-100	-13448	13886	-6754
16526	2626	108	-81	-13230	14462	5114
16531	2644	121	-70	-13230	14462	5114
16536	2654	110	-49	-13230	14462	5114
16541	2678	113	-24	-13230	14462	5114
16546	2679	93	-8	-13230	14462	5114
16551	2692	84	0	-13230	14462	5114
16556	2707	67	29	-15326	4973	14236
16561	2717	43	40	-15326	4973	14236
16566	2725	14	41	-15326	4973	14236
16571	2736	-15	42	-15326	4973	14236
16576	2758	-38	49	-15326	4973	14236
16581	2777	-59	51	-15326	4973	14236
16586	2789	-79	51	-15326	4973	14236
16591	2808	-105	17	-15095	-8496	12273
16596	2825	-113	36	-15095	-8496	12273
16601	2861	-129	16	-15095	-8496	12273
16606	2873	-135	13	-15095	-8496	12273
16611	2895	-143	-9	-15095	-8496	12273
16616	2902	-133	-28	-15095	-8496	12273
16621	2909	-127	-20	-32753	7685	3872
16626	2906	-132	-26	-32753	7685	3872
16631	-688	1641	1117	-32753	7685	3872
16636	-4573	-1239	3914	-32753	7685	3872
16641	213	-288	479	-32753	7685	3872
16646	426	-217	502	-32753	7685	3872
16651	412	10709	355	-591	-4749	1814
16656	1054	328	-1637	-591	-4749	1814
16661	2997	1237	-823	-591	-4749	1814
16666	2130	8669	-1919	-591	-4749	1814
16671	1602	7855	-4013	-591	-4749	1814
16676	2964	8472	-3774	-591	-4749	1814
16681	3515	8210	-2908	-5033	-372	-1246
16686	2355	7344	-1483	-5033	-372	-1246
16691	1365	4927	-4	-5033	-372	-1246
16696	784	2729	674	-5033	-372	-1246
16701	607	321	1850	-5033	-372	-1246
16706	754	-1393	2888	-5033	-372	-1246
16711	-318	164	2114	2893	-1512	-1518
16716	-807	1649	1858	2893	-1512	-1518
16721	-828	2678	1401	2893	-1512	-1518
16726	-649	3716	869	2893	-1512	-1518
16731	-559	4406	591	2893	-1512	-1518
16736	-494	4168	533	2893	-1512	-1518
16741	-259	3744	265	2893	-1512	-1518
16746	-341	3268	-31	-2477	-1060	-3051
16751	-591	2911	41	-2477	-1060	-3051
16756	-528	2545	819	-2477	-1060	-3051
16761	-506	2195	1527	-2477	-1060	-3051
16766	-719	1994	1936	-2477	-1060	-3051
16771	-876	1713	2021	-2477	-1060	-3051
16776	-736	1540	1632	-1713	-967	-2402
16781	-696	1468	1012	-1713	-967	-2402
16786	-670	1364	539	-1713	-967	-2402
16791	-590	1201	466	-1713	-967	-2402
16796	-571	955	579	-1713	-967	-2402
16801	-516	779	850	-1713	-967	-2402
16806	-528	788	1056	-346	580	-1105
16811	-602	762	1122	-346	580	-1105
16816	-696	758	1193	-346	580	-1105
16821	-826	863	1448	-346	580	-1105
16826	-815	905	1546	-346	580	-1105
16831	-823	923	1269	-346	580	-1105
16836	-864	1027	996	-1743	-528	11
16841	-729	1121	654	-1743	-528	11
16846	-654	1023	303	-1743	-528	11
16851	-636	890	42	-1743	-528	11
16856	-569	686	59	-1743	-528	11
16861	-650	358	213	-1743	-528	11
16866	-776	445	506	-1495	-107	626
16871	-761	730	941	-1495	-107	626
16876	-784	861	1224	-1495	-107	626
16881	-835	964	1389	-1495	-107	626
16886	-872	1100	1495	-1495	-107	626
16891	-887	1225	1531	-1495	-107	626
16896	-904	1278	1544	-1495	-107	626
16901	-881	1313	1455	-113	-108	948
16906	-833	1202	1241	-113	-108	948
16911	-844	1066	1111	-113	-108	948
16916	-823	1042	1205	-113	-108	948
16921	-788	1112	1444	-113	-108	948
16926	-766	1258	1684	-113	-108	948
16931	-685	1439	1835	1039	919	743
16936	-635	1507	1848	1039	919	743
16941	-688	1521	1739	1039	919	743
16946	-733	1367	1580	1039	919	743
16951	-980	1173	1358	1039	919	743
16956	-756	937	1117	1039	919	743
16961	-401	2641	2618	-332	2011	280
16966	-978	1196	989	-332	2011	280
16971	-732	1350	979	-332	2011	280
16976	-439	1422	997	-332	2011	280
16981	-565	218	3902	-332	2011	280
16986	-676	1555	865	-332	2011	280
16991	-961	1536	864	-543	1156	1165
16996	-1042	1537	967	-543	1156	1165
17001	-1055	1596	1020	-543	1156	1165
17006	-1020	1660	1035	-543	1156	1165
17011	-1026	1617	976	-543	1156	1165
17016	-999	1531	995	-543	1156	1165
17021	-949	1481	1004	1385	1872	522
17026	-978	1499	1039	1385	1872	522
17031	-998	1660	1110	1385	1872	522
17036	-945	1965	1130	1385	1872	522
17041	-809	2036	1069	1385	1872	522
17046	-645	1937	1103	1385	1872	522
17051	-551	1848	1070	1385	1872	522
17056	-353	1712	913	2165	2504	-2015
17061	-216	1776	983	2165	2504	-2015
17066	-199	1934	868	2165	2504	-2015
17071	-201	1959	763	2165	2504	-2015
17076	-533	2092	792	2165	2504	-2015
17081	-1030	2265	716	2165	2504	-2015
17086	-1261	2282	540	-2633	1486	-1688
17091	-1322	2093	463	-2633	1486	-1688
17096	-1723	1328	434	-2633	1486	-1688
17101	-1600	1635	250	-2633	1486	-1688
17106	-1566	1513	90	-2633	1486	-1688
17111	-1615	1391	178	-2633	1486	-1688
17116	-1688	1210	164	-5452	-1422	-1567
17121	-1829	802	206	-5452	-1422	-1567
17126	-2213	403	273	-5452	-1422	-1567
17131	-2205	753	460	-5452	-1422	-1567
17136	-1461	1049	631	-5452	-1422	-1567
17141	-1123	1110	509	-5452	-1422	-1567
17146	-1337	902	608	-9372	-2732	-1512
17151	-1280	926	747	-9372	-2732	-1512
17156	-1183	916	755	-9372	-2732	-1512
17161	-1194	770	886	-9372	-2732	-1512
17166	-1248	437	1356	-9372	-2732	-1512
17171	-1062	368	1143	-9372	-2732	-1512
17176	-937	305	472	-5241	-1929	-2695
17181	-818	404	489	-5241	-1929	-2695
