time	accelerometer_x	accelerometer_y	accelerometer_z	gyroscope_x	gyroscope_y	gyroscope_z
13006	-1684	881	590	-23	14	-87
13011	-1703	890	553	-23	14	-87
13016	-1727	894	575	-23	14	-87
13021	-1727	864	577	-23	14	-87
13026	-1723	847	582	9	11	17
13031	-1740	861	589	9	11	17
13036	-1749	896	583	9	11	17
13041	-1741	876	569	9	11	17
13046	-1739	855	577	9	11	17
13051	-1726	856	603	9	11	17
13056	-1748	873	600	-26	33	-39
13061	-1746	863	596	-26	33	-39
13066	-1744	880	565	-26	33	-39
13071	-1752	903	585	-26	33	-39
13076	-1750	875	597	-26	33	-39
13081	-1746	863	606	-26	33	-39
13086	-1741	880	608	-29	5	-58
13091	-1729	858	619	-29	5	-58
13096	-1718	860	618	-29	5	-58
13101	-1728	880	600	-29	5	-58
13106	-1719	896	596	-29	5	-58
13111	-1711	874	601	-29	5	-58
13116	-1708	875	595	-59	62	-43
13121	-1721	892	571	-59	62	-43
13126	-1736	877	569	-59	62	-43
13131	-1748	870	589	-59	62	-43
13136	-1758	863	563	-59	62	-43
13141	-1758	864	577	-59	62	-43
13146	-1753	858	565	-56	-21	8
13151	-1750	861	579	-56	-21	8
13156	-1739	854	589	-56	-21	8
13161	-1732	855	587	-56	-21	8
13166	-1743	858	588	-56	-21	8
13171	-1740	876	595	-56	-21	8
13176	-1727	861	605	-56	-21	8
13181	-1721	829	621	-111	-43	-102
13186	-1721	845	587	-111	-43	-102
13191	-1737	870	579	-111	-43	-102
13196	-1765	898	504	-111	-43	-102
13201	-1778	864	557	-111	-43	-102
13206	-1749	849	590	-111	-43	-102
13211	-1731	828	609	-12	-5	131
13216	-1705	787	621	-12	-5	131
13221	-1690	809	608	-12	-5	131
13226	-1710	861	598	-12	-5	131
13231	-1706	862	578	-12	-5	131
13236	-1731	873	572	-12	-5	131
13241	-1745	868	575	-28	-4	14
13246	-1738	853	574	-28	-4	14
13251	-1761	903	582	-28	-4	14
13256	-1756	906	561	-28	-4	14
13261	-1746	885	589	-28	-4	14
13266	-1738	866	602	-28	-4	14
13271	-1727	855	599	-25	43	-29
13276	-1739	850	590	-25	43	-29
13281	-1734	848	585	-25	43	-29
13286	-1732	857	600	-25	43	-29
13291	-1738	868	592	-25	43	-29
13296	-1745	872	601	-25	43	-29
13301	-1758	871	596	-22	-9	74
13306	-1742	874	573	-22	-9	74
13311	-1732	878	564	-22	-9	74
13316	-1739	879	544	-22	-9	74
13321	-1739	881	560	-22	-9	74
13326	-1740	876	598	-22	-9	74
13331	-1733	842	596	-22	-9	74
13336	-1730	851	590	-32	19	-68
13341	-1734	851	608	-32	19	-68
13346	-1734	848	613	-32	19	-68
13351	-1718	845	607	-32	19	-68
13356	-1708	841	622	-32	19	-68
13361	-1700	862	630	-32	19	-68
13366	-1682	861	601	-6	-13	30
13371	-1683	890	578	-6	-13	30
13376	-1702	900	571	-6	-13	30
13381	-1708	876	561	-6	-13	30
13386	-1719	875	555	-6	-13	30
13391	-1731	878	566	-6	-13	30
13396	-1742	860	557	-22	8	-48
13401	-1737	850	558	-22	8	-48
13406	-1739	837	583	-22	8	-48
13411	-1737	832	600	-22	8	-48
13416	-1711	803	600	-22	8	-48
13421	-1711	817	623	-22	8	-48
13426	-1722	834	632	-29	84	59
13431	-1725	842	589	-29	84	59
13436	-1750	870	602	-29	84	59
13441	-1770	905	582	-29	84	59
13446	-1780	925	569	-29	84	59
13451	-1791	916	542	-29	84	59
13456	-1791	914	565	-58	13	-21
13461	-1779	896	567	-58	13	-21
13466	-1767	875	568	-58	13	-21
13471	-1741	847	599	-58	13	-21
13476	-1732	853	589	-58	13	-21
13481	-1727	854	597	-58	13	-21
13486	-1705	843	602	-58	13	-21
13491	-1726	858	610	-110	3	-26
13496	-1742	861	600	-110	3	-26
13501	-1747	886	597	-110	3	-26
13506	-1756	868	589	-110	3	-26
13511	-1767	883	566	-110	3	-26
13516	-1765	894	569	-110	3	-26
13521	-1747	870	579	-87	-5	14
13526	-1755	867	583	-87	-5	14
13531	-1763	887	565	-87	-5	14
13536	-1754	865	590	-87	-5	14
13541	-1738	850	586	-87	-5	14
13546	-1740	855	563	-87	-5	14
13551	-1737	861	558	-54	2	-111
13556	-1731	851	587	-54	2	-111
13561	-1717	859	568	-54	2	-111
13566	-1723	842	594	-54	2	-111
13571	-1725	841	576	-54	2	-111
13576	-1721	843	589	-54	2	-111
13581	-1722	857	602	-74	21	118
13586	-1743	865	585	-74	21	118
13591	-1738	852	599	-74	21	118
13596	-1736	839	588	-74	21	118
13601	-1733	840	612	-74	21	118
13606	-1730	810	627	-74	21	118
13611	-1727	828	589	-65	13	-32
13616	-1729	866	580	-65	13	-32
13621	-1747	872	582	-65	13	-32
13626	-1750	877	587	-65	13	-32
13631	-1739	882	589	-65	13	-32
13636	-1721	868	603	-65	13	-32
13641	-1721	852	590	-65	13	-32
14001	-1564	-624	822	-16485	-2453	-4
14006	142	-537	435	-16485	-2453	-4
14011	425	150	-1818	-16485	-2453	-4
14016	463	-14	-203	-1317	-1094	-1709
14021	1013	-438	1712	-1317	-1094	-1709
14026	1764	-517	2064	-1317	-1094	-1709
14031	1606	-779	2094	-1317	-1094	-1709
14036	1097	-1183	2874	-1317	-1094	-1709
14041	872	-1797	3478	-1317	-1094	-1709
14046	733	-1948	2896	-5174	-2812	-489
14051	465	-1994	1488	-5174	-2812	-489
14056	371	-1532	-273	-5174	-2812	-489
14061	454	-770	-1660	-5174	-2812	-489
14066	653	-709	-2256	-5174	-2812	-489
14071	786	-876	-2102	-5174	-2812	-489
14076	985	-1057	-1515	-6470	-2820	-3276
14081	1326	-983	-899	-6470	-2820	-3276
14086	1630	-697	-382	-6470	-2820	-3276
14091	1683	-209	344	-6470	-2820	-3276
14096	1968	135	1118	-6470	-2820	-3276
14101	2101	263	1574	-6470	-2820	-3276
14106	1937	-38	1685	-6470	-2820	-3276
14111	1745	-559	1546	-4374	1457	-6631
14116	1598	-1138	1280	-4374	1457	-6631
14121	1494	-1599	977	-4374	1457	-6631
14126	1670	-1847	406	-4374	1457	-6631
14131	2116	-1818	19	-4374	1457	-6631
14136	2461	-1792	-193	-4374	1457	-6631
14141	3533	-2364	-402	-293	-947	-721
14146	6052	-4502	-1569	-293	-947	-721
14151	5753	-6748	-1702	-293	-947	-721
14156	1411	-5891	228	-293	-947	-721
14161	1338	-5375	818	-293	-947	-721
14166	2174	-5217	787	-293	-947	-721
14171	2261	-4484	598	350	-255	433
14176	2365	-3872	508	350	-255	433
14181	2435	-4012	511	350	-255	433
14186	2288	-4589	718	350	-255	433
14191	2221	-5059	976	350	-255	433
14196	2291	-5304	1126	350	-255	433
14201	2291	-5367	1174	-266	-409	4965
14206	2396	-5271	985	-266	-409	4965
14211	2649	-5264	608	-266	-409	4965
14216	2854	-5586	241	-266	-409	4965
14221	3132	-5927	-23	-266	-409	4965
14226	3373	-6016	-186	-266	-409	4965
14231	3726	-5935	-144	1782	1033	8908
14236	3998	-5500	148	1782	1033	8908
14241	4155	-4988	441	1782	1033	8908
14246	4091	-4900	705	1782	1033	8908
14251	4128	-4880	776	1782	1033	8908
14256	4212	-4721	734	1782	1033	8908
14261	4407	-4418	686	1782	1033	8908
14266	4340	-4123	729	3000	4195	12751
14271	3959	-3822	402	3000	4195	12751
14276	4126	-3569	199	3000	4195	12751
14281	3687	-2648	126	3000	4195	12751
14286	3384	-1512	80	3000	4195	12751
14291	2770	-481	14	3000	4195	12751
14296	2299	-44	-127	1704	6163	12116
14301	2265	-50	-138	1704	6163	12116
14306	2264	-57	-121	1704	6163	12116
14311	2262	-53	-107	1704	6163	12116
14316	2266	-62	-105	1704	6163	12116
14321	2261	-71	-99	1704	6163	12116
14326	2264	-67	-97	225	7054	11841
14331	2261	-64	-91	225	7054	11841
14336	2262	-73	-80	225	7054	11841
14341	2258	-57	-101	225	7054	11841
14346	2252	-70	-100	225	7054	11841
14351	2257	-74	-96	225	7054	11841
14356	2259	-63	-89	-1303	6633	12058
14361	2262	-60	-94	-1303	6633	12058
14366	2258	-53	-89	-1303	6633	12058
14371	2254	-52	-92	-1303	6633	12058
14376	2250	-53	-100	-1303	6633	12058
14381	2251	-60	-89	-1303	6633	12058
14386	2245	-53	-99	-2671	5053	12531
14391	2244	-60	-86	-2671	5053	12531
14396	2249	-48	-92	-2671	5053	12531
14401	2243	-47	-85	-2671	5053	12531
14406	2243	-48	-95	-2671	5053	12531
14411	2240	-43	-87	-2671	5053	12531
14416	2242	-55	-104	-2671	5053	12531
14421	2232	-55	-94	-3663	2523	13313
14426	2240	-50	-102	-3663	2523	13313
14431	2250	-51	-90	-3663	2523	13313
14436	2237	-52	-93	-3663	2523	13313
14441	2242	-49	-92	-3663	2523	13313
14446	2244	-52	-105	-3663	2523	13313
14451	2238	-51	-100	-3952	-575	13403
14456	2249	-54	-98	-3952	-575	13403
14461	2244	-50	-100	-3952	-575	13403
14466	2239	-65	-102	-3952	-575	13403
14471	2242	-61	-104	-3952	-575	13403
14476	2245	-61	-117	-3952	-575	13403
14481	2240	-63	-111	-3632	-3562	12987
14486	2243	-67	-127	-3632	-3562	12987
14491	2240	-61	-111	-3632	-3562	12987
14496	2236	-66	-105	-3632	-3562	12987
14501	2228	-60	-126	-3632	-3562	12987
14506	2226	-62	-140	-3632	-3562	12987
14511	2221	-52	-124	-21184	8260	-5494
14516	2223	-52	-122	-21184	8260	-5494
14521	2214	-44	-138	-21184	8260	-5494
14526	2200	-39	-122	-21184	8260	-5494
14531	-14871	7338	-1792	-21184	8260	-5494
14536	-5296	-907	2113	-21184	8260	-5494
14541	-2111	-40	538	1421	11208	-480
14546	537	194	86	1421	11208	-480
14551	1162	-511	-1033	1421	11208	-480
14556	2625	-33	-535	1421	11208	-480
14561	3513	-437	-1084	1421	11208	-480
14566	3207	-590	-1456	1421	11208	-480
14571	6520	92	-3430	1421	11208	-480
14576	8236	-13	-4846	-4067	-1302	1250
14581	5752	-1209	-7348	-4067	-1302	1250
14586	1963	-1803	-7922	-4067	-1302	1250
14591	2058	-1229	-7341	-4067	-1302	1250
14596	2458	114	-6558	-4067	-1302	1250
14601	1692	1153	-5465	-4067	-1302	1250
14606	1917	1596	-3961	-1232	376	-166
14611	1908	1678	-2624	-1232	376	-166
14616	1723	1552	-1468	-1232	376	-166
14621	1608	1342	-720	-1232	376	-166
14626	1394	1104	81	-1232	376	-166
14631	1113	1040	523	-1232	376	-166
14636	1169	1104	641	-2652	2099	-973
14641	1326	1127	329	-2652	2099	-973
14646	1260	1116	-420	-2652	2099	-973
14651	1093	1053	-1083	-2652	2099	-973
14656	1426	829	-1575	-2652	2099	-973
14661	1457	506	-1969	-2652	2099	-973
14666	1749	59	-2232	-956	1404	1649
14671	1761	-255	-2342	-956	1404	1649
14676	1812	-336	-2346	-956	1404	1649
14681	1569	-326	-2202	-956	1404	1649
14686	1553	-303	-1860	-956	1404	1649
14691	1785	-233	-1525	-956	1404	1649
14696	1553	-103	-1125	1034	3596	2128
14701	1371	134	-891	1034	3596	2128
14706	1419	421	-882	1034	3596	2128
14711	1816	838	-1227	1034	3596	2128
14716	2151	1351	-1692	1034	3596	2128
14721	2466	1848	-2164	1034	3596	2128
14726	2644	2185	-2721	1034	3596	2128
14731	2580	2355	-3242	1306	-316	1
14736	2422	2415	-3783	1306	-316	1
14741	2471	2472	-4542	1306	-316	1
14746	2561	2520	-5398	1306	-316	1
14751	2517	2425	-6070	1306	-316	1
14756	2440	2427	-6270	1306	-316	1
14761	2801	2602	-6026	955	-4823	-1413
14766	3111	2683	-5568	955	-4823	-1413
14771	3357	2570	-5235	955	-4823	-1413
14776	3591	2206	-5327	955	-4823	-1413
14781	3739	1656	-5719	955	-4823	-1413
14786	3714	1126	-5975	955	-4823	-1413
14791	3853	838	-5962	-1947	-9545	-1401
14796	4105	727	-5486	-1947	-9545	-1401
14801	4342	803	-4824	-1947	-9545	-1401
14806	4446	954	-4370	-1947	-9545	-1401
14811	4515	1039	-4247	-1947	-9545	-1401
14816	4651	1103	-4794	-1947	-9545	-1401
14821	5028	1236	-5434	-6651	-13853	-9075
14826	5578	1488	-5522	-6651	-13853	-9075
14831	6126	1475	-4872	-6651	-13853	-9075
14836	6045	1002	-3611	-6651	-13853	-9075
14841	6194	520	-2075	-6651	-13853	-9075
14846	5058	252	213	-6651	-13853	-9075
14851	4030	88	649	-9293	-7322	-14544
14856	3353	-150	4	-9293	-7322	-14544
14861	3256	-181	-25	-9293	-7322	-14544
14866	3230	-195	-40	-9293	-7322	-14544
14871	3204	-190	-56	-9293	-7322	-14544
14876	3182	-180	-77	-9293	-7322	-14544
14881	3158	-176	-98	-9293	-7322	-14544
14886	3138	-177	-109	-9917	2175	-15979
14891	3116	-163	-112	-9917	2175	-15979
14896	3090	-141	-142	-9917	2175	-15979
14901	3072	-126	-149	-9917	2175	-15979
14906	3063	-114	-155	-9917	2175	-15979
14911	3046	-91	-171	-9917	2175	-15979
14916	3036	-64	-157	-8188	10608	-12317
14921	3025	-39	-164	-8188	10608	-12317
14926	3023	-21	-169	-8188	10608	-12317
14931	3032	10	-155	-8188	10608	-12317
14936	3028	23	-165	-8188	10608	-12317
14941	3042	27	-143	-8188	10608	-12317
14946	3038	52	-147	-5910	14924	-6705
14951	3054	57	-140	-5910	14924	-6705
14956	3063	71	-127	-5910	14924	-6705
14961	3066	71	-113	-5910	14924	-6705
14966	3084	76	-119	-5910	14924	-6705
14971	3083	77	-106	-5910	14924	-6705
14976	3089	83	-92	-4688	16224	-1779
14981	3090	78	-82	-4688	16224	-1779
14986	3099	75	-66	-4688	16224	-1779
14991	3097	69	-61	-4688	16224	-1779
14996	3105	61	-64	-4688	16224	-1779
15001	3096	57	-55	-4688	16224	-1779
15006	3100	52	-46	-4909	15892	3014
15011	3080	43	-34	-4909	15892	3014
15016	3088	47	-42	-4909	15892	3014
15021	3077	45	-26	-4909	15892	3014
15026	3067	29	-35	-4909	15892	3014
15031	3069	30	-22	-4909	15892	3014
15036	3052	28	-27	-4909	15892	3014
15041	3034	21	-31	-32768	-7721	-4391
15046	-11953	-1746	-9416	-32768	-7721	-4391
15051	-986	-210	-949	-32768	-7721	-4391
15056	1135	-466	228	-32768	-7721	-4391
15061	1207	-494	224	-32768	-7721	-4391
15066	1145	-503	194	-32768	-7721	-4391
15071	-88	-566	411	-9219	8642	5302
15076	-2546	-6411	1632	-9219	8642	5302
15081	-2848	-10237	2660	-9219	8642	5302
15086	-1998	-8949	1653	-9219	8642	5302
15091	1754	-7189	-224	-9219	8642	5302
15096	2844	-5080	-3379	-9219	8642	5302
15101	1512	-4130	-3771	-589	719	-2906
15106	-621	-2123	-4395	-589	719	-2906
15111	-361	2796	-4869	-589	719	-2906
15116	196	6798	-3198	-589	719	-2906
15121	-1568	3746	-602	-589	719	-2906
15126	-2639	2114	802	-589	719	-2906
15131	-1584	1366	812	-1345	3462	-4678
15136	-516	1004	724	-1345	3462	-4678
15141	-228	1040	485	-1345	3462	-4678
15146	145	1044	213	-1345	3462	-4678
15151	433	786	-128	-1345	3462	-4678
15156	476	506	-274	-1345	3462	-4678
15161	516	380	-207	-4993	2694	-2687
15166	543	-646	-655	-4993	2694	-2687
15171	603	-168	-466	-4993	2694	-2687
15176	411	-453	-583	-4993	2694	-2687
15181	777	-425	-803	-4993	2694	-2687
15186	851	-526	-868	-4993	2694	-2687
15191	873	-603	-867	-4993	2694	-2687
15196	775	-757	-837	-2360	5231	991
15201	634	-749	-809	-2360	5231	991
15206	585	-644	-808	-2360	5231	991
15211	885	-531	-859	-2360	5231	991
15216	1279	-430	-797	-2360	5231	991
15221	2047	-407	-1198	-2360	5231	991
15226	3292	-166	-2569	-593	2533	-1745
15231	4648	-23	-3783	-593	2533	-1745
15236	5231	792	-3986	-593	2533	-1745
15241	4595	4054	-3980	-593	2533	-1745
15246	2989	3256	-4931	-593	2533	-1745
15251	2229	772	-4844	-593	2533	-1745
15256	2460	-73	-5110	1	952	229
15261	2423	-487	-5246	1	952	229
15266	2322	-490	-5182	1	952	229
15271	2219	-189	-4751	1	952	229
15276	2212	-131	-4396	1	952	229
15281	2329	-333	-4279	1	952	229
15286	2390	-183	-4713	-1321	-3721	-1224
15291	2396	188	-5348	-1321	-3721	-1224
15296	2282	748	-6164	-1321	-3721	-1224
15301	2320	1454	-6696	-1321	-3721	-1224
15306	2391	1955	-6816	-1321	-3721	-1224
15311	2529	2125	-6635	-1321	-3721	-1224
15316	2716	2146	-6406	857	-7801	-2141
15321	2911	1819	-6071	857	-7801	-2141
15326	3141	1605	-5893	857	-7801	-2141
15331	3237	1492	-5820	857	-7801	-2141
15336	3352	1563	-5710	857	-7801	-2141
15341	3568	1871	-5510	857	-7801	-2141
15346	3935	2022	-5443	857	-7801	-2141
15351	4254	1997	-5529	-5927	-12953	-5125
15356	4807	1813	-5233	-5927	-12953	-5125
15361	5352	1311	-4361	-5927	-12953	-5125
15366	5622	622	-3201	-5927	-12953	-5125
15371	4790	269	-1852	-5927	-12953	-5125
15376	3344	-170	-574	-5927	-12953	-5125
15381	2518	-133	-66	-8503	-8734	-10734
15386	2552	-151	-75	-8503	-8734	-10734
15391	2644	-122	-56	-8503	-8734	-10734
15396	2381	-130	-45	-8503	-8734	-10734
15401	2351	-146	-68	-8503	-8734	-10734
15406	2336	-139	-74	-8503	-8734	-10734
15411	2315	-143	-88	-9674	-1498	-13792
15416	2309	-142	-102	-9674	-1498	-13792
15421	2282	-125	-110	-9674	-1498	-13792
15426	2266	-117	-120	-9674	-1498	-13792
15431	2250	-115	-123	-9674	-1498	-13792
15436	2230	-99	-134	-9674	-1498	-13792
15441	2218	-90	-146	-8972	6519	-12181
15446	2212	-71	-144	-8972	6519	-12181
15451	2192	-67	-144	-8972	6519	-12181
15456	2182	-44	-145	-8972	6519	-12181
15461	2182	-26	-166	-8972	6519	-12181
15466	2190	-8	-157	-8972	6519	-12181
15471	2192	10	-155	-7295	11824	-7536
15476	2192	17	-160	-7295	11824	-7536
15481	2195	36	-154	-7295	11824	-7536
15486	2201	40	-160	-7295	11824	-7536
15491	2202	53	-135	-7295	11824	-7536
15496	2214	66	-130	-7295	11824	-7536
15501	2217	69	-128	-7295	11824	-7536
15506	2217	66	-127	-6143	13784	-2435
15511	2230	79	-116	-6143	13784	-2435
15516	2237	72	-108	-6143	13784	-2435
15521	2237	67	-97	-6143	13784	-2435
15526	2243	70	-86	-6143	13784	-2435
15531	2250	66	-86	-6143	13784	-2435
15536	2251	57	-59	-6195	13729	2673
15541	2253	62	-57	-6195	13729	2673
15546	2247	50	-53	-6195	13729	2673
15551	2246	49	-56	-6195	13729	2673
15556	2255	50	-34	-6195	13729	2673
15561	2242	42	-33	-6195	13729	2673
15566	2235	45	-28	-23959	10527	8519
15571	2241	27	-10	-23959	10527	8519
15576	2227	18	-13	-23959	10527	8519
15581	2221	16	-5	-23959	10527	8519
15586	2208	10	18	-23959	10527	8519
15591	617	4325	9321	-23959	10527	8519
15596	1743	-2	-10	-2733	4028	-6147
15601	-2752	-5817	-427	-2733	4028	-6147
15606	-292	-6175	3405	-2733	4028	-6147
15611	377	-908	-593	-2733	4028	-6147
15616	1196	-443	-436	-2733	4028	-6147
15621	901	-3531	-224	-2733	4028	-6147
15626	1753	-4138	-1851	-6286	3643	2243
15631	2476	-3108	-1310	-6286	3643	2243
15636	2698	-3488	-459	-6286	3643	2243
15641	1632	-3619	-242	-6286	3643	2243
15646	591	-2950	-1074	-6286	3643	2243
15651	286	-1547	-1604	-6286	3643	2243
15656	253	-570	-1393	-6286	3643	2243
15661	497	1818	-2379	-2226	-92	-4433
15666	312	2948	-2576	-2226	-92	-4433
15671	320	2042	-2243	-2226	-92	-4433
15676	513	969	-2218	-2226	-92	-4433
15681	507	-101	-1818	-2226	-92	-4433
15686	809	-792	-1492	-2226	-92	-4433
15691	770	-1124	-1223	-5149	1009	-2298
15696	579	-1288	-1003	-5149	1009	-2298
15701	545	-1227	-1006	-5149	1009	-2298
15706	531	-1145	-1049	-5149	1009	-2298
15711	593	-1119	-1151	-5149	1009	-2298
15716	1135	-867	-1161	-5149	1009	-2298
15721	1290	-671	-962	-3628	3741	516
15726	2055	-490	-1033	-3628	3741	516
15731	3105	-231	-1575	-3628	3741	516
15736	3070	-444	-1657	-3628	3741	516
15741	2613	-577	-1416	-3628	3741	516
15746	2694	278	-1191	-3628	3741	516
15751	2881	1587	-1822	-377	1623	-552
15756	3026	1137	-2786	-377	1623	-552
15761	2808	-61	-3414	-377	1623	-552
15766	2456	-646	-4132	-377	1623	-552
15771	2392	-811	-4867	-377	1623	-552
15776	2572	-731	-5017	-377	1623	-552
15781	2517	-817	-4794	1115	-981	461
15786	2556	-965	-4646	1115	-981	461
15791	2555	-1059	-4736	1115	-981	461
15796	2447	-957	-4964	1115	-981	461
15801	2462	-761	-5045	1115	-981	461
15806	2439	-673	-4950	1115	-981	461
15811	2478	-657	-4908	1115	-981	461
15816	2530	-621	-4983	2611	-5063	2315
15821	2860	-737	-5417	2611	-5063	2315
15826	3445	-1065	-6132	2611	-5063	2315
15831	3659	-1716	-6494	2611	-5063	2315
15836	3890	-2249	-6324	2611	-5063	2315
15841	4264	-2559	-6016	2611	-5063	2315
15846	4541	-2179	-5545	926	-9178	5063
15851	4547	-1839	-5129	926	-9178	5063
15856	4433	-1675	-4650	926	-9178	5063
15861	4545	-1487	-4383	926	-9178	5063
15866	4869	-1662	-4509	926	-9178	5063
15871	5157	-1757	-4448	926	-9178	5063
15876	5514	-1683	-4171	1138	-11658	6365
15881	5938	-1347	-3696	1138	-11658	6365
15886	5807	-933	-2884	1138	-11658	6365
15891	4624	-544	-1821	1138	-11658	6365
15896	3310	-203	-813	1138	-11658	6365
15901	2225	50	-94	1138	-11658	6365
15906	2072	54	-56	2557	-10606	7621
15911	2067	45	-73	2557	-10606	7621
15916	2054	41	-86	2557	-10606	7621
15921	2050	40	-96	2557	-10606	7621
15926	2040	42	-85	2557	-10606	7621
15931	2031	45	-99	2557	-10606	7621
15936	2041	41	-107	4189	-8602	9717
15941	2035	50	-115	4189	-8602	9717
15946	2018	45	-119	4189	-8602	9717
15951	2009	39	-130	4189	-8602	9717
15956	2001	46	-135	4189	-8602	9717
15961	2006	49	-139	4189	-8602	9717
15966	2001	43	-117	4189	-8602	9717
15971	1989	34	-136	5619	-5103	11948
15976	1985	35	-131	5619	-5103	11948
15981	1977	36	-130	5619	-5103	11948
15986	1972	29	-162	5619	-5103	11948
15991	1966	26	-143	5619	-5103	11948
15996	1960	15	-152	5619	-5103	11948
16001	1967	8	-140	6344	-145	12956
16006	1962	10	-144	6344	-145	12956
16011	1962	-4	-140	6344	-145	12956
16016	1959	-12	-153	6344	-145	12956
16021	1959	-17	-137	6344	-145	12956
16026	1958	-26	-152	6344	-145	12956
16031	1957	-30	-139	5812	4652	12058
16036	1967	-46	-148	5812	4652	12058
16041	1971	-49	-147	5812	4652	12058
16046	1982	-60	-153	5812	4652	12058
16051	1975	-62	-145	5812	4652	12058
16056	1991	-72	-124	5812	4652	12058
16061	1986	-72	-120	4470	8340	9940
16066	1994	-77	-110	4470	8340	9940
16071	2001	-82	-108	4470	8340	9940
16076	2008	-89	-106	4470	8340	9940
16081	2013	-88	-104	4470	8340	9940
16086	2012	-81	-94	4470	8340	9940
16091	2014	-90	-88	3078	10353	7728
16096	2012	-83	-96	3078	10353	7728
16101	2015	-78	-60	3078	10353	7728
16106	2023	-73	-61	3078	10353	7728
16111	2008	-71	-46	3078	10353	7728
16116	2010	-67	-37	3078	10353	7728
16121	1995	-62	-40	3078	10353	7728
16126	1754	-209	1149	-30340	159	-10048
16131	1146	-381	-206	-30340	159	-10048
16136	-6389	7406	-7897	-30340	159	-10048
16141	-2429	-8977	3904	-30340	159	-10048
16146	130	-4478	249	-30340	159	-10048
16151	577	-3094	-1614	-30340	159	-10048
16156	316	1154	-2717	-3504	4562	1209
16161	-735	659	-1490	-3504	4562	1209
16166	-678	-4744	-1695	-3504	4562	1209
16171	1579	-5991	-1858	-3504	4562	1209
16176	3303	-4998	-9	-3504	4562	1209
16181	3346	-3581	-630	-3504	4562	1209
16186	2661	-1882	-2574	-3310	2092	-1808
16191	1503	-462	-2688	-3310	2092	-1808
16196	1002	67	-2122	-3310	2092	-1808
16201	739	732	-1992	-3310	2092	-1808
16206	780	958	-1560	-3310	2092	-1808
16211	836	734	-1130	-3310	2092	-1808
16216	695	531	-969	-1857	3459	-2916
16221	952	363	-1022	-1857	3459	-2916
16226	1133	14	-842	-1857	3459	-2916
16231	1258	-251	-568	-1857	3459	-2916
16236	1316	-296	-291	-1857	3459	-2916
16241	1350	-225	-198	-1857	3459	-2916
16246	1689	-148	-295	-2175	4744	-51
16251	2113	-318	-834	-2175	4744	-51
16256	2190	-551	-1165	-2175	4744	-51
16261	2235	-549	-1454	-2175	4744	-51
16266	2573	-569	-1838	-2175	4744	-51
16271	3022	-679	-2320	-2175	4744	-51
16276	3369	-678	-2847	-2175	4744	-51
16281	3806	-275	-3638	223	1105	-226
16286	3359	241	-4420	223	1105	-226
16291	2661	517	-4929	223	1105	-226
16296	2448	639	-5346	223	1105	-226
16301	2622	729	-5493	223	1105	-226
16306	2766	631	-5558	223	1105	-226
16311	2878	470	-5575	663	-1817	345
16316	2858	295	-5573	663	-1817	345
16321	2828	127	-5579	663	-1817	345
16326	2914	19	-5537	663	-1817	345
16331	3013	-98	-5373	663	-1817	345
16336	3216	-108	-5178	663	-1817	345
16341	3797	206	-5105	2949	-6239	934
16346	4379	415	-5501	2949	-6239	934
16351	4821	337	-6053	2949	-6239	934
16356	5004	7	-6583	2949	-6239	934
16361	5121	-447	-6983	2949	-6239	934
16366	4601	-1150	-6599	2949	-6239	934
16371	4280	-1435	-5491	919	-10515	3988
16376	3941	-1263	-4535	919	-10515	3988
16381	3730	-962	-3711	919	-10515	3988
16386	3721	-636	-2981	919	-10515	3988
16391	3753	-348	-2529	919	-10515	3988
16396	3884	-156	-2050	919	-10515	3988
16401	4002	-107	-1839	-12982	-15240	-632
16406	3787	-240	-1796	-12982	-15240	-632
16411	3310	-285	-1678	-12982	-15240	-632
16416	2891	-369	-1449	-12982	-15240	-632
16421	3132	-428	-1596	-12982	-15240	-632
16426	3638	-444	-1789	-12982	-15240	-632
16431	3442	-381	-1117	-12982	-15240	-632
16436	3039	-214	-3	-14624	-10150	-11576
16441	2966	-204	-4	-14624	-10150	-11576
16446	2969	-210	-21	-14624	-10150	-11576
16451	2918	-238	-9	-14624	-10150	-11576
16456	2886	-237	-46	-14624	-10150	-11576
16461	2837	-240	-69	-14624	-10150	-11576
16466	2798	-232	-75	-15319	3505	-14869
16471	2760	-209	-101	-15319	3505	-14869
16476	2714	-185	-104	-15319	3505	-14869
16481	2667	-157	-134	-15319	3505	-14869
16486	2643	-125	-140	-15319	3505	-14869
16491	2620	-87	-141	-15319	3505	-14869
16496	2604	-47	-162	-13448	13886	-6754
16501	2599	-9	-155	-13448	13886	-6754
16506	2595	34	-141	-13448	13886	-6754
16511	2602	56	-124	-13448	13886	-6754
16516	2605	81	-122	-13448	13886	-6754
16521	2618	98	-100	-13448	13886	-6754
16526	2626	108	-81	-13230	14462	5114
16531	2644	121	-70	-13230	14462	5114
16536	2654	110	-49	-13230	14462	5114
16541	2678	113	-24	-13230	14462	5114
16546	2679	93	-8	-13230	14462	5114
16551	2692	84	0	-13230	14462	5114
16556	2707	67	29	-15326	4973	14236
16561	2717	43	40	-15326	4973	14236
16566	2725	14	41	-15326	4973	14236
16571	2736	-15	42	-15326	4973	14236
16576	2758	-38	49	-15326	4973	14236
16581	2777	-59	51	-15326	4973	14236
16586	2789	-79	51	-15326	4973	14236
16591	2808	-105	17	-15095	-8496	12273
16596	2825	-113	36	-15095	-8496	12273
16601	2861	-129	16	-15095	-8496	12273
16606	2873	-135	13	-15095	-8496	12273
16611	2895	-143	-9	-15095	-8496	12273
16616	2902	-133	-28	-15095	-8496	12273
16621	2909	-127	-20	-32753	7685	3872
16626	2906	-132	-26	-32753	7685	3872
16631	-688	1641	1117	-32753	7685	3872
16636	-4573	-1239	3914	-32753	7685	3872
16641	213	-288	479	-32753	7685	3872
16646	426	-217	502	-32753	7685	3872
16651	412	10709	355	-591	-4749	1814
16656	1054	328	-1637	-591	-4749	1814
16661	2997	1237	-823	-591	-4749	1814
16666	2130	8669	-1919	-591	-4749	1814
16671	1602	7855	-4013	-591	-4749	1814
16676	2964	8472	-3774	-591	-4749	1814
16681	3515	8210	-2908	-5033	-372	-1246
16686	2355	7344	-1483	-5033	-372	-1246
16691	1365	4927	-4	-5033	-372	-1246
16696	784	2729	674	-5033	-372	-1246
16701	607	321	1850	-5033	-372	-1246
16706	754	-1393	2888	-5033	-372	-1246
16711	-318	164	2114	2893	-1512	-1518
16716	-807	1649	1858	2893	-1512	-1518
16721	-828	2678	1401	2893	-1512	-1518
16726	-649	3716	869	2893	-1512	-1518
16731	-559	4406	591	2893	-1512	-1518
16736	-494	4168	533	2893	-1512	-1518
16741	-259	3744	265	2893	-1512	-1518
16746	-341	3268	-31	-2477	-1060	-3051
16751	-591	2911	41	-2477	-1060	-3051
16756	-528	2545	819	-2477	-1060	-3051
16761	-506	2195	1527	-2477	-1060	-3051
16766	-719	1994	1936	-2477	-1060	-3051
16771	-876	1713	2021	-2477	-1060	-3051
16776	-736	1540	1632	-1713	-967	-2402
16781	-696	1468	1012	-1713	-967	-2402
16786	-670	1364	539	-1713	-967	-2402
16791	-590	1201	466	-1713	-967	-2402
16796	-571	955	579	-1713	-967	-2402
16801	-516	779	850	-1713	-967	-2402
16806	-528	788	1056	-346	580	-1105
16811	-602	762	1122	-346	580	-1105
16816	-696	758	1193	-346	580	-1105
16821	-826	863	1448	-346	580	-1105
16826	-815	905	1546	-346	580	-1105
16831	-823	923	1269	-346	580	-1105
16836	-864	1027	996	-1743	-528	11
16841	-729	1121	654	-1743	-528	11
16846	-654	1023	303	-1743	-528	11
16851	-636	890	42	-1743	-528	11
16856	-569	686	59	-1743	-528	11
16861	-650	358	213	-1743	-528	11
16866	-776	445	506	-1495	-107	626
16871	-761	730	941	-1495	-107	626
16876	-784	861	1224	-1495	-107	626
16881	-835	964	1389	-1495	-107	626
16886	-872	1100	1495	-1495	-107	626
16891	-887	1225	1531	-1495	-107	626
16896	-904	1278	1544	-1495	-107	626
16901	-881	1313	1455	-113	-108	948
16906	-833	1202	1241	-113	-108	948
16911	-844	1066	1111	-113	-108	948
16916	-823	1042	1205	-113	-108	948
16921	-788	1112	1444	-113	-108	948
16926	-766	1258	1684	-113	-108	948
16931	-685	1439	1835	1039	919	743
16936	-635	1507	1848	1039	919	743
16941	-688	1521	1739	1039	919	743
16946	-733	1367	1580	1039	919	743
16951	-980	1173	1358	1039	919	743
16956	-756	937	1117	1039	919	743
16961	-401	2641	2618	-332	2011	280
16966	-978	1196	989	-332	2011	280
16971	-732	1350	979	-332	2011	280
16976	-439	1422	997	-332	2011	280
16981	-565	218	3902	-332	2011	280
16986	-676	1555	865	-332	2011	280
16991	-961	1536	864	-543	1156	1165
16996	-1042	1537	967	-543	1156	1165
17001	-1055	1596	1020	-543	1156	1165
17006	-1020	1660	1035	-543	1156	1165
17011	-1026	1617	976	-543	1156	1165
17016	-999	1531	995	-543	1156	1165
17021	-949	1481	1004	1385	1872	522
17026	-978	1499	1039	1385	1872	522
17031	-998	1660	1110	1385	1872	522
17036	-945	1965	1130	1385	1872	522
17041	-809	2036	1069	1385	1872	522
17046	-645	1937	1103	1385	1872	522
17051	-551	1848	1070	1385	1872	522
17056	-353	1712	913	2165	2504	-2015
17061	-216	1776	983	2165	2504	-2015
17066	-199	1934	868	2165	2504	-2015
17071	-201	1959	763	2165	2504	-2015
17076	-533	2092	792	2165	2504	-2015
17081	-1030	2265	716	2165	2504	-2015
17086	-1261	2282	540	-2633	1486	-1688
17091	-1322	2093	463	-2633	1486	-1688
17096	-1723	1328	434	-2633	1486	-1688
17101	-1600	1635	250	-2633	1486	-1688
17106	-1566	1513	90	-2633	1486	-1688
17111	-1615	1391	178	-2633	1486	-1688
17116	-1688	1210	164	-5452	-1422	-1567
17121	-1829	802	206	-5452	-1422	-1567
17126	-2213	403	273	-5452	-1422	-1567
17131	-2205	753	460	-5452	-1422	-1567
17136	-1461	1049	631	-5452	-1422	-1567
17141	-1123	1110	509	-5452	-1422	-1567
17146	-1337	902	608	-9372	-2732	-1512
17151	-1280	926	747	-9372	-2732	-1512
17156	-1183	916	755	-9372	-2732	-1512
17161	-1194	770	886	-9372	-2732	-1512
17166	-1248	437	1356	-9372	-2732	-1512
17171	-1062	368	1143	-9372	-2732	-1512
17176	-937	305	472	-5241	-1929	-2695
17181	-818	404	489	-5241	-1929	-2695
17186	-689	361	995	-5241	-1929	-2695
17191	-688	768	1154	-5241	-1929	-2695
17196	-825	719	1694	-5241	-1929	-2695
17201	-920	282	2147	-5241	-1929	-2695
17206	-1052	-47	2301	-5241	-1929	-2695
17211	-1115	-446	2036	-2510	-980	298
17216	-1233	-836	2220	-2510	-980	298
17221	-1128	-2030	1621	-2510	-980	298
17226	-678	-2633	1396	-2510	-980	298
17231	-1305	-1429	1113	-2510	-980	298
17236	-1003	-1115	1339	-2510	-980	298
17241	-738	-752	1171	-3428	-542	92
17246	-687	-860	1035	-3428	-542	92
17251	-805	-1058	1426	-3428	-542	92
17256	-937	-1303	1825	-3428	-542	92
17261	-870	-1658	1987	-3428	-542	92
17266	-840	-1825	1808	-3428	-542	92
17271	-928	-1937	1574	-2636	-311	915
17276	-952	-1978	1420	-2636	-311	915
17281	-814	-1915	1443	-2636	-311	915
17286	-864	-1584	1266	-2636	-311	915
17291	-956	-1284	982	-2636	-311	915
17296	-897	-1156	846	-2636	-311	915
17301	-1079	-1196	897	-3307	527	1156
17306	-1096	-1319	1025	-3307	527	1156
17311	-1232	-1766	1253	-3307	527	1156
17316	-1122	-1686	1303	-3307	527	1156
17321	-1170	-1395	1056	-3307	527	1156
17326	-1121	-1325	1006	-3307	527	1156
17331	-1045	-1189	853	-1758	2202	301
17336	-888	-404	861	-1758	2202	301
17341	-1520	-364	892	-1758	2202	301
17346	-1420	-966	760	-1758	2202	301
17351	-1258	-976	708	-1758	2202	301
17356	-1166	-1123	274	-1758	2202	301
17361	-1145	-1158	-53	-1758	2202	301
17366	-1187	-1435	-255	6394	647	4507
17371	-1144	-1816	-454	6394	647	4507
17376	-1158	-2003	-300	6394	647	4507
17381	-1339	-2000	60	6394	647	4507
17386	-1154	-2234	100	6394	647	4507
17391	-1038	-2067	221	6394	647	4507
17396	-1125	-1611	88	4528	1153	3367
17401	-1207	-1082	28	4528	1153	3367
17406	-1295	-684	-112	4528	1153	3367
17411	-1569	-450	323	4528	1153	3367
17416	-1754	-451	463	4528	1153	3367
17421	-1685	-414	687	4528	1153	3367
17426	-1819	-238	657	2235	-292	1808
17431	-1769	-136	213	2235	-292	1808
17436	-1705	-182	43	2235	-292	1808
17441	-1722	-246	45	2235	-292	1808
17446	-1818	-339	71	2235	-292	1808
17451	-1808	-349	243	2235	-292	1808
17456	-1758	48	470	58	647	2169
17461	-1930	-1069	1003	58	647	2169
17466	-1941	-1202	1847	58	647	2169
17471	-1662	-121	639	58	647	2169
17476	-1736	155	599	58	647	2169
17481	-1741	129	771	58	647	2169
17486	-1760	387	672	-2264	-369	2116
17491	-1709	665	985	-2264	-369	2116
17496	-1847	612	533	-2264	-369	2116
17501	-1831	226	367	-2264	-369	2116
17506	-1924	-364	768	-2264	-369	2116
17511	-1924	-438	753	-2264	-369	2116
17516	-1860	-451	643	-2264	-369	2116
17521	-1865	-619	757	-5821	-1491	1602
17526	-1818	-101	623	-5821	-1491	1602
17531	-1455	179	710	-5821	-1491	1602
17536	-1279	63	665	-5821	-1491	1602
17541	-1128	-507	469	-5821	-1491	1602
17546	-1297	-538	685	-5821	-1491	1602
17551	-1190	-880	638	-5767	-1966	-1281
17556	-740	-869	160	-5767	-1966	-1281
17561	-501	-843	341	-5767	-1966	-1281
17566	-311	-1464	1144	-5767	-1966	-1281
17571	-716	-444	827	-5767	-1966	-1281
17576	-815	-533	1619	-5767	-1966	-1281
17581	-430	488	748	-5916	-2869	174
17586	-1333	-2460	2825	-5916	-2869	174
17591	-630	-907	1460	-5916	-2869	174
17596	271	6154	-2725	-5916	-2869	174
17601	256	549	666	-5916	-2869	174
17606	-1154	-2918	1076	-5916	-2869	174
17611	-1233	4469	1080	-5044	-1466	2
17616	-575	3141	2951	-5044	-1466	2
17621	-1136	-253	1684	-5044	-1466	2
17626	-721	-1819	2098	-5044	-1466	2
17631	-1334	-2378	2555	-5044	-1466	2
17636	-1853	463	6275	-5044	-1466	2
17641	-2012	-2436	4386	-4871	-2970	-3188
17646	-2064	-2511	2372	-4871	-2970	-3188
17651	-1445	-1452	2124	-4871	-2970	-3188
17656	-1262	-629	550	-4871	-2970	-3188
17661	-1430	84	2230	-4871	-2970	-3188
17666	-1097	146	356	-4871	-2970	-3188
17671	-1010	-348	1574	-4871	-2970	-3188
17676	-441	-353	933	-1573	244	-685
17681	-917	-1103	2308	-1573	244	-685
17686	-1059	-2111	1998	-1573	244	-685
17691	-1547	-4084	2057	-1573	244	-685
17696	-1152	-3684	1463	-1573	244	-685
17701	-1657	-3977	511	-1573	244	-685
17706	-872	-2917	803	-1740	1527	-2176
17711	-304	-1884	745	-1740	1527	-2176
17716	-306	-1075	894	-1740	1527	-2176
17721	-376	-1187	1065	-1740	1527	-2176
17726	-507	-1873	608	-1740	1527	-2176
17731	-259	-2312	265	-1740	1527	-2176
17736	-283	-3133	474	-2292	184	3759
17741	-664	-3829	690	-2292	184	3759
17746	-49	-2255	656	-2292	184	3759
17751	169	-2157	-297	-2292	184	3759
17756	-37	-3379	-1776	-2292	184	3759
17761	286	-2508	-163	-2292	184	3759
17766	-268	-4467	-1333	-4203	-976	1846
17771	-229	-3998	-1104	-4203	-976	1846
17776	231	-3785	-1822	-4203	-976	1846
17781	1223	-1455	383	-4203	-976	1846
17786	510	-1888	-2835	-4203	-976	1846
17791	1315	-1638	3394	-4203	-976	1846
17796	139	-1474	-1187	-1124	-2529	450
17801	-55	-485	-1341	-1124	-2529	450
17806	472	-1178	-341	-1124	-2529	450
17811	320	-1157	-540	-1124	-2529	450
17816	-88	-1572	-586	-1124	-2529	450
17821	128	-1808	-801	-1124	-2529	450
17826	103	-2324	-1327	-1124	-2529	450
17831	259	-2363	-1669	-1280	-3250	-289
17836	458	-2116	-1102	-1280	-3250	-289
17841	500	-1099	-560	-1280	-3250	-289
17846	406	-970	232	-1280	-3250	-289
17851	121	-890	637	-1280	-3250	-289
17856	-154	-775	524	-1280	-3250	-289
17861	-219	-895	228	1915	-4210	-1789
17866	-65	-857	-7	1915	-4210	-1789
17871	15	-704	-69	1915	-4210	-1789
17876	377	-1236	-852	1915	-4210	-1789
17881	621	-1193	-946	1915	-4210	-1789
17886	362	-346	1210	1915	-4210	-1789
17891	-395	-977	1965	329	353	-2349
17896	-345	-1639	1655	329	353	-2349
17901	-284	-1725	1766	329	353	-2349
17906	-498	-1655	1678	329	353	-2349
17911	-495	-1570	1876	329	353	-2349
17916	-339	-1719	1705	329	353	-2349
17921	-184	-1834	1538	-1401	6135	288
17926	-151	-1866	1177	-1401	6135	288
17931	55	-1543	476	-1401	6135	288
17936	420	-1907	1125	-1401	6135	288
17941	292	-2274	1393	-1401	6135	288
17946	-174	-3860	2571	-1401	6135	288
17951	-865	-4083	1994	952	949	-2076
17956	-1145	-4990	1074	952	949	-2076
17961	795	-962	-1002	952	949	-2076
17966	1477	-852	-395	952	949	-2076
17971	1286	-1276	-1131	952	949	-2076
17976	1273	-1651	-1397	952	949	-2076
17981	1269	-2103	-1203	952	949	-2076
17986	1143	-2441	-1033	3455	1092	2252
17991	1049	-2711	-523	3455	1092	2252
17996	757	-3286	495	3455	1092	2252
18001	385	-3767	860	3455	1092	2252
18006	444	-3648	692	3455	1092	2252
18011	599	-3222	597	3455	1092	2252
18016	645	-2911	132	4802	-2886	4407
18021	879	-2924	-893	4802	-2886	4407
18026	728	-3054	-1305	4802	-2886	4407
18031	460	-3021	-934	4802	-2886	4407
18036	361	-2819	-363	4802	-2886	4407
18041	268	-2638	141	4802	-2886	4407
18046	61	-2503	647	4307	-2609	5476
18051	-49	-2381	926	4307	-2609	5476
18056	-86	-2148	870	4307	-2609	5476
18061	-81	-1938	743	4307	-2609	5476
18066	-63	-1587	666	4307	-2609	5476
18071	77	-1205	588	4307	-2609	5476
18076	141	-873	586	1187	-1473	3155
18081	229	-608	668	1187	-1473	3155
18086	179	-460	842	1187	-1473	3155
18091	47	-385	1192	1187	-1473	3155
18096	-50	-409	1734	1187	-1473	3155
18101	-280	-503	2266	1187	-1473	3155
18106	-401	-536	2446	706	-369	1962
18111	-303	-574	2410	706	-369	1962
18116	-145	-564	2224	706	-369	1962
18121	-104	-544	1905	706	-369	1962
18126	-103	-398	1665	706	-369	1962
18131	-82	-285	1492	706	-369	1962
18136	-72	-222	1461	706	-369	1962
18141	-78	-235	1450	523	-951	1168
18146	-135	-269	1401	523	-951	1168
18151	-174	-355	1336	523	-951	1168
18156	-204	-506	1217	523	-951	1168
18161	-259	-659	1086	523	-951	1168
18166	-352	-750	1106	523	-951	1168
18171	-420	-834	1248	529	-1486	1471
18176	-397	-857	1384	529	-1486	1471
18181	-327	-741	1521	529	-1486	1471
18186	-340	-546	1635	529	-1486	1471
18191	-334	-398	1772	529	-1486	1471
18196	-315	-234	1876	529	-1486	1471
18201	-287	-85	1953	442	-1150	81
18206	-229	68	1966	442	-1150	81
18211	-206	180	2014	442	-1150	81
18216	-188	261	2071	442	-1150	81
18221	-224	223	2145	442	-1150	81
18226	-354	-11	2406	442	-1150	81
18231	-512	-260	2650	-1389	139	-371
18236	-563	-448	2797	-1389	139	-371
18241	-524	-519	2662	-1389	139	-371
18246	-461	-436	2481	-1389	139	-371
18251	-379	-290	2285	-1389	139	-371
18256	-319	-171	2143	-1389	139	-371
18261	-260	-66	2034	816	-512	-124
18266	-210	22	1886	816	-512	-124
18271	-154	19	1702	816	-512	-124
18276	-178	-84	1587	816	-512	-124
18281	-297	-147	1606	816	-512	-124
18286	-405	-128	1676	816	-512	-124
18291	-426	-158	1801	816	-512	-124
18296	-446	-222	1982	315	336	78
18301	-438	-281	2152	315	336	78
18306	-440	-310	2282	315	336	78
18311	-415	-311	2335	315	336	78
18316	-359	-292	2335	315	336	78
18321	-290	-225	2440	315	336	78
18326	-187	-81	2653	-241	1246	-990
18331	-286	-22	2499	-241	1246	-990
18336	-330	-15	2423	-241	1246	-990
18341	-253	-7	2536	-241	1246	-990
18346	-180	-7	2577	-241	1246	-990
18351	-276	50	2461	-241	1246	-990
18356	-408	60	2370	-126	727	-1666
18361	-441	92	2205	-126	727	-1666
18366	-334	136	1986	-126	727	-1666
18371	-300	143	1812	-126	727	-1666
18376	-399	31	1716	-126	727	-1666
18381	-529	-77	1719	-126	727	-1666
18386	-625	-222	1961	120	1187	-1829
18391	-627	-468	2302	120	1187	-1829
18396	-619	-686	2486	120	1187	-1829
18401	-597	-755	2450	120	1187	-1829
18406	-509	-875	2355	120	1187	-1829
18411	77	-234	2204	120	1187	-1829
18416	1018	842	923	-412	324	-1253
18421	-118	-600	-1029	-412	324	-1253
18426	-298	-1714	2726	-412	324	-1253
18431	-970	-892	2012	-412	324	-1253
18436	-682	-965	2063	-412	324	-1253
18441	-515	-601	1996	-412	324	-1253
18446	-437	-509	1957	-412	324	-1253
18451	-333	-437	1963	-348	23	-282
18456	-470	-419	1787	-348	23	-282
18461	-593	-523	1846	-348	23	-282
18466	-296	-472	1898	-348	23	-282
18471	-244	-659	1630	-348	23	-282
18476	-214	-786	1490	-348	23	-282
18481	-325	-724	1436	-1353	-1532	-947
18486	-294	-575	1480	-1353	-1532	-947
18491	2484	-19	668	-1353	-1532	-947
18496	590	-391	880	-1353	-1532	-947
18501	567	-1211	939	-1353	-1532	-947
18506	908	-1064	779	-1353	-1532	-947
18511	900	-605	41	455	-498	704
18516	1040	-1003	995	455	-498	704
18521	805	-1124	1291	455	-498	704
18526	557	-1298	1751	455	-498	704
18531	227	-1369	2278	455	-498	704
18536	-251	-1519	2994	455	-498	704
18541	-645	-1716	3388	1875	1693	3551
18546	-907	-1877	3414	1875	1693	3551
18551	-1015	-1800	3096	1875	1693	3551
18556	-962	-1536	2666	1875	1693	3551
18561	-886	-1169	2248	1875	1693	3551
18566	-817	-653	1893	1875	1693	3551
18571	-765	-61	1758	-579	2118	863
18576	-812	461	1700	-579	2118	863
18581	-957	632	1765	-579	2118	863
18586	-1062	628	1767	-579	2118	863
18591	-1087	569	1748	-579	2118	863
18596	-1124	550	1884	-579	2118	863
18601	-1114	518	1797	-579	2118	863
18606	-1125	304	1775	21	2325	1887
18611	-1123	30	1769	21	2325	1887
18616	-1273	-253	1644	21	2325	1887
18621	-1154	-494	1679	21	2325	1887
18626	-874	-602	1664	21	2325	1887
18631	-690	-496	1538	21	2325	1887
18636	-648	-461	1421	-776	2121	1504
18641	-706	-356	1298	-776	2121	1504
18646	-751	-261	1301	-776	2121	1504
18651	-837	-187	1459	-776	2121	1504
18656	-892	-202	2003	-776	2121	1504
18661	-894	-468	2062	-776	2121	1504
18666	-920	-517	1675	-1709	2459	1050
18671	-986	-495	1369	-1709	2459	1050
18676	-1059	-569	1241	-1709	2459	1050
18681	-1062	-603	1287	-1709	2459	1050
18686	-909	-582	1409	-1709	2459	1050
18691	-651	-368	1434	-1709	2459	1050
18696	-721	-59	987	-1814	524	474
18701	-944	-3	738	-1814	524	474
18706	-1136	-294	771	-1814	524	474
18711	-1268	-456	901	-1814	524	474
18716	-1390	-579	1081	-1814	524	474
18721	-1610	-676	1097	-1814	524	474
18726	-1711	-776	976	-1122	1326	204
18731	-1651	-632	909	-1122	1326	204
18736	-1516	-487	887	-1122	1326	204
18741	-1425	-391	851	-1122	1326	204
18746	-1509	-288	862	-1122	1326	204
18751	-1528	-350	997	-1122	1326	204
18756	-1575	-459	1005	-1122	1326	204
18761	-1694	-590	1022	-966	1327	-739
18766	-1731	-732	1001	-966	1327	-739
18771	-1742	-662	907	-966	1327	-739
18776	-1652	-514	824	-966	1327	-739
18781	-1757	-347	778	-966	1327	-739
18786	-1592	-423	688	-966	1327	-739
18791	-1580	-586	689	-232	721	182
18796	-1690	-742	606	-232	721	182
18801	-1707	-865	596	-232	721	182
18806	-1696	-916	671	-232	721	182
18811	-1792	-972	706	-232	721	182
18816	-1831	-1021	710	-232	721	182
18821	-1819	-1026	627	-487	926	326
18826	-1781	-910	620	-487	926	326
18831	-1754	-800	664	-487	926	326
18836	-1856	-703	667	-487	926	326
18841	-1863	-694	603	-487	926	326
18846	-1804	-561	633	-487	926	326
18851	-1796	-434	626	-972	1232	-326
18856	-1777	-412	627	-972	1232	-326
18861	-1864	-492	605	-972	1232	-326
18866	-1867	-638	591	-972	1232	-326
18871	-1876	-736	499	-972	1232	-326
18876	-1932	-876	421	-972	1232	-326
18881	-1967	-954	334	-527	1065	639
18886	-1986	-962	284	-527	1065	639
18891	-2057	-968	355	-527	1065	639
18896	-2100	-891	314	-527	1065	639
18901	-2056	-816	235	-527	1065	639
18906	-1972	-682	133	-527	1065	639
18911	-1891	-582	117	-527	1065	639
18916	-1649	-381	42	94	1181	584
18921	-1861	-375	54	94	1181	584
18926	-1871	-356	78	94	1181	584
18931	-1961	-532	135	94	1181	584
18936	-2014	-688	141	94	1181	584
18941	-2022	-709	10	94	1181	584
18946	-2085	-819	-29	394	684	1291
18951	-2111	-670	-22	394	684	1291
18956	-2022	-682	-24	394	684	1291
18961	-2024	-526	56	394	684	1291
18966	-2014	-539	69	394	684	1291
18971	-1911	-549	94	394	684	1291
18976	-2146	-562	-3	459	354	1816
18981	-2133	-647	70	459	354	1816
18986	-2053	-535	-4	459	354	1816
18991	-2012	-636	-143	459	354	1816
18996	-2005	-761	-207	459	354	1816
19001	-2110	-753	-246	459	354	1816
19006	-2135	-668	-211	1336	-396	2451
19011	-1978	-483	-218	1336	-396	2451
19016	-1820	-308	-258	1336	-396	2451
19021	-1736	-54	-66	1336	-396	2451
19026	-1750	316	3	1336	-396	2451
19031	-1819	680	143	1336	-396	2451
19036	-1862	775	255	1722	-127	1603
19041	-1837	783	232	1722	-127	1603
19046	-1892	582	121	1722	-127	1603
19051	-1957	99	-106	1722	-127	1603
19056	-2093	-451	-253	1722	-127	1603
19061	-2303	-645	-306	1722	-127	1603
19066	-2415	-664	-93	1722	-127	1603
19071	-2530	-341	57	1009	-296	1860
19076	-2152	-105	-230	1009	-296	1860
19081	-1731	-326	-471	1009	-296	1860
19086	-1561	-69	-243	1009	-296	1860
19091	-1834	42	91	1009	-296	1860
19096	-2619	116	344	1009	-296	1860
19101	-2786	335	37	2864	-2454	1687
19106	-2313	196	-18	2864	-2454	1687
19111	-1621	384	-390	2864	-2454	1687
19116	-1397	305	-423	2864	-2454	1687
19121	-1463	373	-215	2864	-2454	1687
19126	-1779	564	-46	2864	-2454	1687
19131	-1837	901	69	7932	-2304	2155
19136	-1787	764	164	7932	-2304	2155
19141	-1912	665	452	7932	-2304	2155
19146	-2159	607	862	7932	-2304	2155
19151	-2777	1000	1047	7932	-2304	2155
19156	-2184	1708	520	7932	-2304	2155
19161	-1907	1254	25	1706	249	-1775
19166	-2024	1598	-318	1706	249	-1775
19171	-2139	1523	-291	1706	249	-1775
19176	-2141	1574	-44	1706	249	-1775
19181	-2026	1923	162	1706	249	-1775
19186	-1795	1740	413	1706	249	-1775
19191	-1466	1112	753	1669	214	-2657
19196	-1552	1071	393	1669	214	-2657
19201	-1659	1195	203	1669	214	-2657
19206	-1399	1025	283	1669	214	-2657
19211	-1327	1146	-93	1669	214	-2657
19216	-1224	768	-341	1669	214	-2657
19221	-1294	830	-367	1669	214	-2657
19226	-1278	843	-1049	1911	-1074	-774
19231	-1466	1193	-673	1911	-1074	-774
19236	-1011	379	-589	1911	-1074	-774
19241	-701	-115	70	1911	-1074	-774
19246	-1083	-447	-208	1911	-1074	-774
19251	-2123	-980	-966	1911	-1074	-774
19256	-2656	-361	-667	4341	329	2841
19261	-2199	-41	-443	4341	329	2841
19266	-1699	5	-438	4341	329	2841
19271	-1700	348	152	4341	329	2841
19276	-2087	667	363	4341	329	2841
19281	-2044	908	589	4341	329	2841
19286	-2322	944	113	4029	-418	2199
19291	-2070	785	-269	4029	-418	2199
19296	-1711	702	-545	4029	-418	2199
19301	-1524	771	-803	4029	-418	2199
19306	-1570	903	-960	4029	-418	2199
19311	-1529	1033	-964	4029	-418	2199
19316	-1578	1231	-899	1454	-533	890
19321	-1661	1147	-730	1454	-533	890
19326	-1827	1104	-414	1454	-533	890
19331	-1801	1114	-328	1454	-533	890
19336	-2000	1197	-318	1454	-533	890
19341	-1937	1193	-334	1454	-533	890
19346	-1770	1132	-320	985	-813	1174
19351	-1703	1072	-399	985	-813	1174
19356	-1609	1055	-650	985	-813	1174
19361	-1510	1146	-819	985	-813	1174
19366	-1529	1191	-753	985	-813	1174
19371	-1535	1090	-504	985	-813	1174
19376	-1864	1205	-366	985	-813	1174
19381	-1815	1405	-297	699	-449	664
19386	-1750	1487	-388	699	-449	664
19391	-1699	1345	-466	699	-449	664
19396	-1679	1182	-298	699	-449	664
19401	-1697	1133	-283	699	-449	664
19406	-1761	999	-276	699	-449	664
19411	-1767	843	-289	509	-362	550
19416	-1662	956	-359	509	-362	550
19421	-1555	1152	-441	509	-362	550
19426	-1591	1371	-540	509	-362	550
19431	-1457	1354	-664	509	-362	550
19436	-1626	1321	-652	509	-362	550
19441	-1597	1286	-641	725	-184	757
19446	-1444	1194	-555	725	-184	757
19451	-1522	1152	-525	725	-184	757
19456	-1723	1196	-529	725	-184	757
19461	-1778	1197	-528	725	-184	757
19466	-1613	1328	-567	725	-184	757
19471	-1520	1378	-573	101	-378	405
19476	-1465	1202	-552	101	-378	405
19481	-1561	1224	-571	101	-378	405
19486	-1581	1287	-634	101	-378	405
19491	-1487	1312	-651	101	-378	405
19496	-1508	1279	-617	101	-378	405
19501	-1526	1311	-575	-26	-388	307
19506	-1565	1422	-481	-26	-388	307
19511	-1598	1398	-542	-26	-388	307
19516	-1590	1362	-546	-26	-388	307
19521	-1562	1461	-572	-26	-388	307
19526	-1506	1480	-573	-26	-388	307
19531	-1524	1444	-601	-26	-388	307
19536	-1505	1486	-608	-53	-276	223
19541	-1509	1452	-579	-53	-276	223
19546	-1507	1367	-531	-53	-276	223
19551	-1508	1348	-492	-53	-276	223
19556	-1478	1291	-470	-53	-276	223
19561	-1483	1274	-490	-53	-276	223
19566	-1473	1306	-518	26	-325	228
19571	-1429	1275	-509	26	-325	228
19576	-1434	1356	-487	26	-325	228
19581	-1479	1432	-485	26	-325	228
19586	-1518	1456	-437	26	-325	228
19591	-1541	1443	-450	26	-325	228
19596	-1516	1426	-478	-181	-393	272
19601	-1512	1400	-472	-181	-393	272
19606	-1500	1364	-459	-181	-393	272
19611	-1485	1360	-400	-181	-393	272
19616	-1479	1361	-373	-181	-393	272
19621	-1454	1410	-379	-181	-393	272
19626	-1454	1465	-404	-219	-595	179
19631	-1460	1440	-414	-219	-595	179
19636	-1418	1394	-448	-219	-595	179
19641	-1431	1385	-421	-219	-595	179
19646	-1414	1403	-443	-219	-595	179
19651	-1412	1428	-448	-219	-595	179
19656	-1446	1438	-400	-74	-458	228
19661	-1478	1487	-371	-74	-458	228
19666	-1506	1503	-367	-74	-458	228
19671	-1510	1473	-395	-74	-458	228
19676	-1487	1443	-400	-74	-458	228
19681	-1487	1480	-388	-74	-458	228
19686	-1469	1483	-377	-74	-458	228
19691	-1479	1435	-320	-53	-318	204
19696	-1496	1406	-287	-53	-318	204
19701	-1473	1407	-289	-53	-318	204
19706	-1481	1421	-323	-53	-318	204
19711	-1444	1424	-331	-53	-318	204
19716	-1444	1427	-341	-53	-318	204
19721	-1416	1432	-338	-94	-192	-141
19726	-1464	1473	-276	-94	-192	-141
19731	-1456	1548	-248	-94	-192	-141
19736	-1497	1558	-198	-94	-192	-141
19741	-1470	1536	-250	-94	-192	-141
19746	-1443	1497	-299	-94	-192	-141
19751	-1442	1426	-275	-199	-319	-33
19756	-1438	1372	-292	-199	-319	-33
19761	-1420	1414	-309	-199	-319	-33
19766	-1387	1448	-320	-199	-319	-33
19771	-1369	1468	-342	-199	-319	-33
19776	-1370	1523	-344	-199	-319	-33
19781	-1396	1523	-322	-23	-111	97
19786	-1408	1493	-317	-23	-111	97
19791	-1454	1528	-318	-23	-111	97
19796	-1455	1492	-408	-23	-111	97
19801	-1370	1464	-317	-23	-111	97
19806	-1433	1476	-274	-23	-111	97
19811	-1407	1492	-276	-225	-450	-116
19816	-1395	1515	-301	-225	-450	-116
19821	-1346	1481	-307	-225	-450	-116
19826	-1365	1497	-340	-225	-450	-116
19831	-1386	1506	-280	-225	-450	-116
19836	-1497	1516	-192	-225	-450	-116
19841	-1519	1518	-141	-225	-450	-116
19846	-1584	1516	-72	245	-6	37
19851	-1575	1542	-65	245	-6	37
19856	-1529	1542	-129	245	-6	37
19861	-1483	1509	-132	245	-6	37
19866	-1475	1478	-120	245	-6	37
19871	-1456	1447	-96	245	-6	37
19876	-1434	1424	-124	-331	-301	-137
19881	-1418	1421	-139	-331	-301	-137
19886	-1406	1397	-189	-331	-301	-137
19891	-1399	1425	-210	-331	-301	-137
19896	-1403	1424	-231	-331	-301	-137
19901	-1457	1502	-151	-331	-301	-137
19906	-1439	1550	-189	124	-72	31
19911	-1456	1544	-146	124	-72	31
19916	-1485	1531	-130	124	-72	31
19921	-1454	1524	-98	124	-72	31
19926	-1480	1511	-121	124	-72	31
19931	-1441	1480	-148	124	-72	31
19936	-1433	1473	-175	-27	-101	-33
19941	-1460	1454	-129	-27	-101	-33
19946	-1478	1456	-110	-27	-101	-33
19951	-1456	1524	-137	-27	-101	-33
19956	-1443	1544	-136	-27	-101	-33
19961	-1461	1502	-120	-27	-101	-33
19966	-1459	1474	-142	16	-62	-15
19971	-1439	1462	-136	16	-62	-15
19976	-1444	1443	-134	16	-62	-15
19981	-1433	1422	-153	16	-62	-15
19986	-1405	1425	-148	16	-62	-15
19991	-1398	1435	-153	16	-62	-15
19996	-1409	1449	-134	16	-62	-15
20001	-1442	1459	-147	23	13	-5
20006	-1466	1537	-145	23	13	-5
20011	-1481	1574	-130	23	13	-5
20016	-1491	1535	-116	23	13	-5
20021	-1492	1505	-119	23	13	-5
20026	-1461	1504	-175	23	13	-5
20031	-1424	1515	-207	99	13	-130
20036	-1421	1514	-197	99	13	-130
20041	-1438	1524	-164	99	13	-130
20046	-1459	1566	-150	99	13	-130
20051	-1479	1552	-139	99	13	-130
20056	-1474	1517	-154	99	13	-130
20061	-1457	1465	-159	-135	18	9
20066	-1446	1429	-144	-135	18	9
20071	-1462	1396	-132	-135	18	9
20076	-1477	1399	-108	-135	18	9
20081	-1442	1447	-136	-135	18	9
20086	-1462	1505	-119	-135	18	9
20091	-1462	1486	-133	-25	26	-51
20096	-1479	1488	-122	-25	26	-51
20101	-1460	1513	-146	-25	26	-51
20106	-1487	1510	-139	-25	26	-51
20111	-1436	1465	-138	-25	26	-51
20116	-1434	1422	-144	-25	26	-51
20121	-1417	1366	-130	-150	-12	-115
20126	-1417	1345	-114	-150	-12	-115
20131	-1423	1393	-97	-150	-12	-115
20136	-1439	1450	-101	-150	-12	-115
20141	-1447	1507	-85	-150	-12	-115
20146	-1460	1522	-82	-150	-12	-115
20151	-1478	1493	-79	-150	-12	-115
20156	-1457	1450	-109	-60	-70	27
20161	-1457	1433	-116	-60	-70	27
20166	-1465	1427	-122	-60	-70	27
20171	-1446	1448	-133	-60	-70	27
20176	-1470	1459	-140	-60	-70	27
20181	-1462	1452	-112	-60	-70	27
20186	-1474	1454	-151	-72	-78	-75
20191	-1448	1501	-131	-72	-78	-75
20196	-1472	1521	-155	-72	-78	-75
20201	-1478	1529	-111	-72	-78	-75
20206	-1496	1539	-86	-72	-78	-75
20211	-1505	1525	-89	-72	-78	-75
20216	-1485	1457	-89	-200	-54	-43
20221	-1475	1419	-110	-200	-54	-43
20226	-1458	1395	-113	-200	-54	-43
20231	-1454	1384	-111	-200	-54	-43
20236	-1474	1417	-95	-200	-54	-43
20241	-1477	1456	-73	-200	-54	-43
20246	-1484	1484	-62	-180	-102	-115
20251	-1470	1479	-82	-180	-102	-115
20256	-1465	1488	-117	-180	-102	-115
20261	-1464	1492	-92	-180	-102	-115
20266	-1460	1486	-88	-180	-102	-115
20271	-1474	1436	-78	-180	-102	-115
20276	-1468	1420	-44	-98	9	-102
20281	-1472	1410	-41	-98	9	-102
20286	-1486	1460	-42	-98	9	-102
20291	-1490	1478	-57	-98	9	-102
20296	-1505	1469	-49	-98	9	-102
20301	-1499	1440	-59	-98	9	-102
20306	-1482	1425	-78	-98	9	-102
20311	-1463	1420	-69	-10	-12	-48
20316	-1447	1425	-81	-10	-12	-48
20321	-1456	1417	-48	-10	-12	-48
20326	-1456	1395	-28	-10	-12	-48
20331	-1480	1427	-9	-10	-12	-48
20336	-1495	1448	2	-10	-12	-48
20341	-1483	1458	-14	-76	-135	-4
20346	-1479	1490	-37	-76	-135	-4
20351	-1488	1478	-44	-76	-135	-4
20356	-1484	1455	-38	-76	-135	-4
20361	-1484	1413	-31	-76	-135	-4
20366	-1475	1422	-47	-76	-135	-4
20371	-1465	1437	-85	-16	-42	40
20376	-1469	1441	-51	-16	-42	40
20381	-1485	1450	-48	-16	-42	40
20386	-1501	1463	-25	-16	-42	40
20391	-1478	1432	-21	-16	-42	40
20396	-1489	1400	-32	-16	-42	40
20401	-1489	1411	-27	-38	35	-14
20406	-1492	1425	-50	-38	35	-14
20411	-1486	1430	-37	-38	35	-14
20416	-1482	1438	-22	-38	35	-14
20421	-1483	1440	-13	-38	35	-14
20426	-1483	1448	-21	-38	35	-14
20433	-1472	1432	4	-114	6	11
20436	-1471	1429	3	-114	6	11
20441	-1499	1448	-5	-114	6	11
20446	-1479	1458	-21	-114	6	11
20451	-1472	1451	-48	-114	6	11
20456	-1479	1427	-54	-114	6	11
20461	-1478	1434	-43	-114	6	11
20466	-1469	1416	-59	-123	-38	-115
20471	-1456	1421	-60	-123	-38	-115
20476	-1467	1433	-58	-123	-38	-115
20481	-1478	1468	-53	-123	-38	-115
20486	-1493	1458	-39	-123	-38	-115
20491	-1487	1444	-22	-123	-38	-115
20496	-1483	1438	-17	23	-72	8
20501	-1487	1455	-18	23	-72	8
20506	-1501	1455	-6	23	-72	8
20511	-1486	1425	-7	23	-72	8
20516	-1487	1437	-16	23	-72	8
20521	-1492	1466	-25	23	-72	8
20526	-1488	1447	-19	-1	-30	27
20531	-1480	1434	-16	-1	-30	27
20536	-1474	1422	-22	-1	-30	27
20541	-1486	1395	-24	-1	-30	27
20546	-1491	1383	-10	-1	-30	27
20551	-1488	1417	-29	-1	-30	27
20556	-1491	1458	-61	-26	-74	9
20561	-1505	1462	-38	-26	-74	9
20566	-1511	1461	-29	-26	-74	9
20571	-1495	1442	-45	-26	-74	9
20576	-1493	1443	-28	-26	-74	9
20581	-1513	1441	1	-26	-74	9
20586	-1508	1434	16	-50	-58	-11
20591	-1494	1409	12	-50	-58	-11
20596	-1466	1396	4	-50	-58	-11
20601	-1464	1380	8	-50	-58	-11
20606	-1454	1391	-3	-50	-58	-11
20611	-1467	1443	-13	-50	-58	-11
20616	-1464	1479	-18	-50	-58	-11
20621	-1489	1481	-22	-37	-48	1
20626	-1491	1474	-3	-37	-48	1
20631	-1488	1420	11	-37	-48	1
20636	-1487	1416	13	-37	-48	1
20641	-1501	1422	11	-37	-48	1
20646	-1488	1402	36	-37	-48	1
20651	-1475	1381	38	-74	-14	59
20656	-1449	1394	14	-74	-14	59
20661	-1453	1393	34	-74	-14	59
20666	-1448	1418	20	-74	-14	59
20671	-1468	1463	7	-74	-14	59
20676	-1480	1497	-20	-74	-14	59
20681	-1499	1497	-23	-13	-47	78
20686	-1487	1475	-18	-13	-47	78
20691	-1489	1434	5	-13	-47	78
20696	-1506	1412	19	-13	-47	78
20701	-1496	1402	28	-13	-47	78
20706	-1482	1415	30	-13	-47	78
20711	-1496	1435	31	-12	-47	36
20716	-1489	1436	-8	-12	-47	36
20721	-1457	1453	-5	-12	-47	36
20726	-1477	1482	-20	-12	-47	36
20731	-1479	1463	-5	-12	-47	36
20736	-1471	1451	-11	-12	-47	36
20741	-1458	1447	9	-42	32	140
20746	-1475	1454	19	-42	32	140
20751	-1477	1431	30	-42	32	140
20756	-1474	1407	11	-42	32	140
20761	-1460	1416	26	-42	32	140
20766	-1457	1451	-6	-42	32	140
20771	-1432	1460	-5	-42	32	140
20776	-1393	1464	-36	-35	53	78
20781	-1401	1488	-18	-35	53	78
20786	-1440	1444	20	-35	53	78
20791	-1506	1442	36	-35	53	78
20796	-1469	1411	43	-35	53	78
20801	-1502	1397	56	-35	53	78
20806	-1438	1389	49	-95	8	12
20811	-1433	1397	10	-95	8	12
20816	-1409	1455	-7	-95	8	12
20821	-1547	1484	-7	-95	8	12
20826	-1446	1509	-34	-95	8	12
20831	-1447	1527	-41	-95	8	12
20836	-1481	1516	-21	-49	97	-75
20841	-1502	1545	-15	-49	97	-75
20846	-1542	1574	-2	-49	97	-75
20851	-1531	1553	8	-49	97	-75
20856	-1513	1506	-1	-49	97	-75
20861	-1483	1471	15	-49	97	-75
20866	-1463	1466	-17	55	-78	80
20871	-1433	1415	-25	55	-78	80
20876	-1418	1447	-26	55	-78	80
20881	-1402	1452	-13	55	-78	80
20886	-1409	1417	-24	55	-78	80
20891	-1424	1431	-16	55	-78	80
20896	-1427	1479	-18	37	49	52
20901	-1448	1512	-20	37	49	52
20906	-1446	1502	-3	37	49	52
20911	-1462	1474	2	37	49	52
20916	-1473	1472	1	37	49	52
20921	-1462	1441	-12	37	49	52
20926	-1425	1445	-21	37	49	52
20931	-1412	1461	-12	77	-50	37
20936	-1393	1430	-19	77	-50	37
20941	-1387	1459	-15	77	-50	37
20946	-1404	1483	-18	77	-50	37
20951	-1433	1472	-9	77	-50	37
20956	-1459	1482	10	77	-50	37
20961	-1493	1520	4	-120	-42	9
20966	-1496	1512	-30	-120	-42	9
20971	-1489	1501	-61	-120	-42	9
20976	-1473	1502	-43	-120	-42	9
20981	-1440	1475	-46	-120	-42	9
20986	-1419	1447	-50	-120	-42	9
20991	-1394	1470	-7	-71	59	-81
20996	-1413	1488	2	-71	59	-81
21001	-1429	1503	12	-71	59	-81
