time	accelerometer_x	accelerometer_y	accelerometer_z	gyroscope_x	gyroscope_y	gyroscope_z
1	-18	-112	1930	-24	-3	-56
6	-10	-102	1917	-55	-42	-30
11	-8	-109	1913	-55	-42	-30
16	-13	-108	1918	-55	-42	-30
21	-6	-104	1927	-55	-42	-30
26	-4	-116	1908	-55	-42	-30
31	-7	-101	1924	-55	-42	-30
36	-14	-108	1933	-77	51	43
41	4	-105	1923	-77	51	43
46	0	-108	1918	-77	51	43
51	-10	-107	1904	-77	51	43
56	-2	-100	1926	-77	51	43
61	-3	-109	1925	-77	51	43
66	-1	-113	1931	-45	17	-27
71	-9	-105	1920	-45	17	-27
76	-5	-108	1918	-45	17	-27
81	-8	-104	1917	-45	17	-27
86	-3	-103	1908	-45	17	-27
91	-11	-108	1924	-45	17	-27
110	2	-98	1929	-45	17	-27
111	-3	-104	1921	-45	17	-27
116	-8	-113	1910	-21	-6	77
121	-16	-114	1907	-21	-6	77
126	-12	-108	1917	-47	12	-108
131	-7	-108	1920	-47	12	-108
136	-7	-105	1897	-47	12	-108
141	-15	-104	1925	-47	12	-108
146	-15	-107	1907	-47	12	-108
151	-5	-104	1913	-47	12	-108
156	-5	-122	1911	-47	12	-108
161	-5	-105	1926	-77	-29	-8
166	-12	-109	1920	-77	-29	-8
171	-9	-104	1912	-77	-29	-8
176	-9	-107	1914	-77	-29	-8
181	-15	-110	1921	-77	-29	-8
186	-9	-114	1917	-77	-29	-8
191	-4	-109	1927	-54	30	40
196	-3	-99	1921	-54	30	40
201	-10	-112	1930	-54	30	40
206	-8	-114	1904	-54	30	40
211	-6	-113	1924	-54	30	40
216	-10	-112	1920	-54	30	40
221	-13	-107	1918	-62	27	-45
226	-8	-112	1922	-62	27	-45
231	-2	-115	1914	-62	27	-45
236	-8	-107	1924	-62	27	-45
241	-10	-108	1918	-62	27	-45
246	-7	-101	1937	-62	27	-45
251	-4	-112	1912	-48	1	-12
256	-9	-101	1916	-48	1	-12
261	-9	-109	1922	-48	1	-12
266	-10	-109	1922	-48	1	-12
271	2	-124	1923	-48	1	-12
276	-4	-109	1917	-48	1	-12
281	-5	-102	1921	-29	12	-20
286	-9	-114	1929	-29	12	-20
291	-2	-104	1909	-29	12	-20
296	-8	-108	1919	-29	12	-20
301	-7	-103	1921	-29	12	-20
306	-5	-103	1940	-29	12	-20
311	-5	-106	1874	-29	12	-20
316	-14	-101	1899	-35	32	30
321	-2	-98	1932	-35	32	30
326	-4	-107	1930	-35	32	30
331	-2	-106	1942	-35	32	30
336	-1	-103	1941	-35	32	30
341	3	-108	1925	-35	32	30
346	-12	-108	1902	-19	-5	-61
351	-13	-101	1923	-19	-5	-61
356	-13	-109	1906	-19	-5	-61
361	-11	-105	1889	-19	-5	-61
366	0	-107	1925	-19	-5	-61
371	-6	-107	1946	-19	-5	-61
376	-2	-102	1910	-21	41	-1
381	-4	-109	1932	-21	41	-1
386	-10	-110	1902	-21	41	-1
391	-2	-105	1926	-21	41	-1
396	-8	-103	1916	-21	41	-1
401	-7	-103	1925	-21	41	-1
406	-4	-107	1934	-82	45	-1
411	0	-107	1904	-82	45	-1
416	-6	-106	1913	-82	45	-1
421	-1	-109	1926	-82	45	-1
426	-15	-107	1916	-82	45	-1
431	7	-109	1927	-82	45	-1
436	-8	-104	1924	-55	8	-37
441	-9	-106	1921	-55	8	-37
446	-8	-108	1927	-55	8	-37
451	4	-103	1917	-55	8	-37
456	-1	-110	1923	-55	8	-37
461	-9	-103	1931	-55	8	-37
466	-9	-111	1911	-55	8	-37
471	-1	-104	1935	-71	48	-56
476	-9	-102	1926	-71	48	-56
481	-6	-101	1921	-71	48	-56
486	-8	-101	1928	-71	48	-56
491	-7	-104	1910	-71	48	-56
496	-7	-99	1920	-71	48	-56
501	-10	-109	1917	-58	38	-49
506	-2	-108	1922	-58	38	-49
511	-12	-108	1930	-58	38	-49
516	-11	-106	1935	-58	38	-49
521	-15	-108	1914	-58	38	-49
526	-4	-112	1927	-58	38	-49
531	-11	-110	1932	-65	42	31
536	-10	-104	1927	-65	42	31
541	-2	-110	1912	-65	42	31
546	-13	-111	1924	-65	42	31
551	-11	-105	1927	-65	42	31
556	-7	-103	1904	-65	42	31
561	-8	-108	1929	-35	15	-30
566	-5	-96	1928	-35	15	-30
571	-2	-103	1928	-35	15	-30
576	-2	-104	1912	-35	15	-30
581	-9	-106	1925	-35	15	-30
586	-12	-108	1924	-35	15	-30
591	-14	-108	1921	-59	3	84
596	-6	-107	1929	-59	3	84
601	-5	-101	1913	-59	3	84
606	-12	-109	1915	-59	3	84
611	-17	-107	1918	-59	3	84
616	-6	-116	1926	-59	3	84
621	-8	-104	1918	-59	3	84
626	-7	-101	1914	-60	-3	-7
631	-11	-106	1918	-60	-3	-7
636	-14	-105	1934	-60	-3	-7
641	-8	-103	1922	-60	-3	-7
646	-8	-107	1913	-60	-3	-7
651	-5	-107	1934	-60	-3	-7
656	-11	-102	1925	-74	28	-21
661	-10	-113	1931	-74	28	-21
666	-6	-101	1909	-74	28	-21
671	-6	-106	1916	-74	28	-21
676	-4	-99	1929	-74	28	-21
681	-11	-107	1928	-74	28	-21
686	-7	-105	1915	-65	35	20
691	-12	-107	1921	-65	35	20
696	-9	-104	1921	-65	35	20
701	-7	-102	1922	-65	35	20
706	-18	-105	1913	-65	35	20
711	-7	-108	1928	-65	35	20
716	5	-100	1923	-39	-2	-77
721	-8	-108	1921	-39	-2	-77
726	-7	-105	1929	-39	-2	-77
731	-6	-111	1928	-39	-2	-77
736	-13	-103	1931	-39	-2	-77
741	-6	-113	1929	-39	-2	-77
746	-4	-102	1927	-58	28	77
751	-5	-105	1915	-58	28	77
756	-2	-110	1922	-58	28	77
761	-7	-110	1928	-58	28	77
766	-9	-107	1939	-58	28	77
771	-9	-102	1921	-58	28	77
776	-3	-106	1927	-58	28	77
781	-10	-104	1911	-12	-3	21
786	-6	-111	1934	-12	-3	21
791	-10	-109	1921	-12	-3	21
796	-9	-102	1920	-12	-3	21
801	-7	-106	1924	-12	-3	21
806	-11	-110	1917	-12	-3	21
811	-3	-99	1914	-15	-2	-4
816	-7	-106	1938	-15	-2	-4
821	-15	-105	1927	-15	-2	-4
826	-6	-110	1915	-15	-2	-4
831	1	-102	1916	-15	-2	-4
836	-10	-103	1912	-15	-2	-4
841	-4	-103	1919	-49	48	11
846	-2	-106	1917	-49	48	11
851	-9	-109	1933	-49	48	11
856	-5	-113	1918	-49	48	11
861	-5	-104	1922	-49	48	11
866	-9	-105	1916	-49	48	11
871	-4	-106	1915	-55	57	-26
876	-14	-110	1912	-55	57	-26
881	-8	-104	1904	-55	57	-26
886	-6	-106	1909	-55	57	-26
891	-16	-110	1925	-55	57	-26
896	-11	-102	1912	-55	57	-26
901	-5	-110	1931	-36	55	20
906	-8	-106	1927	-36	55	20
911	-10	-105	1922	-36	55	20
916	-3	-106	1915	-36	55	20
921	-1	-102	1913	-36	55	20
926	-14	-108	1915	-36	55	20
931	-11	-109	1913	-36	55	20
936	-4	-97	1926	-29	65	-95
941	1	-106	1924	-29	65	-95
946	-7	-102	1918	-29	65	-95
951	-7	-104	1928	-29	65	-95
956	-9	-106	1922	-29	65	-95
961	-14	-102	1901	-29	65	-95
966	-1	-107	1925	-16	17	55
971	5	-107	1917	-16	17	55
976	-4	-106	1931	-16	17	55
981	-5	-102	1902	-16	17	55
986	-5	-112	1933	-16	17	55
991	-8	-105	1918	-16	17	55
996	-20	-106	1921	5	-9	89
1001	-4	-100	1920	5	-9	89
1006	1	-104	1912	5	-9	89
1011	-4	-101	1928	5	-9	89
1016	-13	-114	1917	5	-9	89
1021	-3	-100	1926	5	-9	89
1026	-7	-105	1923	-32	24	3
1031	-8	-106	1907	-32	24	3
1036	-15	-112	1909	-32	24	3
1041	-8	-105	1915	-32	24	3
1046	-10	-103	1922	-32	24	3
1051	-9	-104	1920	-32	24	3
1056	-2	-109	1923	-41	5	27
1061	-8	-106	1904	-41	5	27
1066	-1	-112	1918	-41	5	27
1071	-15	-104	1917	-41	5	27
1076	-2	-102	1921	-41	5	27
1081	-8	-112	1930	-41	5	27
1086	-7	-101	1918	-41	5	27
1091	-8	-101	1932	-34	38	-10
1096	-4	-110	1924	-34	38	-10
1101	-7	-109	1925	-34	38	-10
1106	-17	-105	1921	-34	38	-10
1111	-10	-111	1909	-34	38	-10
1116	-4	-104	1923	-34	38	-10
1121	-13	-99	1918	-55	4	37
1126	-9	-103	1915	-55	4	37
1131	-13	-112	1920	-55	4	37
1136	-8	-101	1921	-55	4	37
1141	-5	-102	1919	-55	4	37
1146	-7	-103	1923	-55	4	37
1151	-12	-104	1923	-28	-23	-75
1156	-10	-107	1906	-28	-23	-75
1161	-5	-102	1928	-28	-23	-75
1166	-10	-108	1903	-28	-23	-75
1171	-6	-113	1923	-28	-23	-75
1176	-9	-99	1932	-28	-23	-75
1181	-8	-107	1914	-45	-8	78
1186	-12	-105	1930	-45	-8	78
1191	-8	-109	1914	-45	-8	78
1196	-4	-117	1922	-45	-8	78
1201	-3	-98	1917	-45	-8	78
1206	-10	-105	1907	-45	-8	78
1211	-10	-107	1932	-49	29	-62
1216	1	-104	1916	-49	29	-62
1221	-5	-104	1917	-49	29	-62
1226	-11	-106	1919	-49	29	-62
1231	1	-102	1917	-49	29	-62
1236	5	-108	1919	-49	29	-62
1241	-5	-103	1919	-49	29	-62
1246	-2	-96	1914	-57	-8	31
1251	-5	-114	1921	-57	-8	31
1256	-12	-102	1916	-57	-8	31
1261	-11	-98	1917	-57	-8	31
1266	-9	-104	1923	-57	-8	31
1271	-17	-103	1915	-57	-8	31
1276	-4	-108	1922	-63	21	-2
1281	-4	-104	1920	-63	21	-2
1286	-13	-107	1929	-63	21	-2
1291	-2	-99	1912	-63	21	-2
1296	-8	-106	1925	-63	21	-2
1301	-4	-98	1919	-63	21	-2
1306	-7	-106	1922	-73	-25	-30
1311	0	-101	1919	-73	-25	-30
1316	-10	-99	1930	-73	-25	-30
1321	-12	-91	1925	-73	-25	-30
1326	-7	-112	1910	-73	-25	-30
1331	-8	-103	1920	-73	-25	-30
1336	-15	-105	1908	-36	-6	87
1341	-12	-101	1918	-36	-6	87
1346	-14	-106	1930	-36	-6	87
1351	-2	-100	1918	-36	-6	87
1356	-16	-118	1910	-36	-6	87
1361	-11	-108	1928	-36	-6	87
1366	-18	-109	1925	-11	31	-112
1371	-8	-113	1921	-11	31	-112
1376	-5	-109	1926	-11	31	-112
1381	-9	-108	1920	-11	31	-112
1386	-8	-100	1920	-11	31	-112
1391	-7	-104	1929	-11	31	-112
1396	-11	-111	1922	-11	31	-112
1401	-4	-110	1919	-36	19	93
1406	-1	-101	1933	-36	19	93
1411	-8	-110	1918	-36	19	93
1416	-9	-104	1928	-36	19	93
1421	-9	-104	1924	-36	19	93
1426	-6	-101	1927	-36	19	93
1431	-6	-107	1934	-29	8	-58
1436	1	-104	1918	-29	8	-58
1441	-7	-113	1941	-29	8	-58
1446	-12	-99	1910	-29	8	-58
1451	-10	-106	1933	-29	8	-58
1456	-3	-103	1907	-29	8	-58
1461	2	-107	1919	-47	61	1
1466	-1	-107	1920	-47	61	1
1471	-1	-93	1911	-47	61	1
1476	-9	-107	1913	-47	61	1
1481	-12	-112	1922	-47	61	1
1486	-2	-106	1911	-47	61	1
1491	-4	-110	1920	-60	19	17
1496	-14	-105	1926	-60	19	17
1501	-5	-113	1921	-60	19	17
1506	-10	-112	1928	-60	19	17
1511	-12	-105	1922	-60	19	17
1516	-7	-103	1924	-60	19	17
1521	-8	-100	1929	-61	12	-1
1526	3	-106	1927	-61	12	-1
1531	-2	-96	1921	-61	12	-1
1536	-18	-104	1936	-61	12	-1
1541	-3	-103	1921	-61	12	-1
1546	-8	-106	1934	-61	12	-1
1551	-6	-100	1921	-61	12	-1
1556	-7	-95	1908	-70	25	-77
1561	-2	-106	1917	-70	25	-77
1566	-18	-107	1912	-70	25	-77
1571	-3	-107	1912	-70	25	-77
1576	-3	-104	1921	-70	25	-77
1581	-10	-107	1920	-70	25	-77
1586	-3	-107	1926	-42	-5	-87
1591	-3	-108	1904	-42	-5	-87
1596	-15	-101	1911	-42	-5	-87
1601	-6	-106	1910	-42	-5	-87
1606	-3	-100	1924	-42	-5	-87
1611	-2	-97	1918	-42	-5	-87
1616	-1	-104	1919	-39	-29	53
1621	-11	-107	1918	-39	-29	53
1626	-13	-100	1913	-39	-29	53
1631	-11	-98	1905	-39	-29	53
1636	-3	-95	1927	-39	-29	53
1641	0	-109	1928	-39	-29	53
1646	-9	-107	1912	-8	-13	-45
1651	-15	-108	1909	-8	-13	-45
1656	-2	-105	1914	-8	-13	-45
1661	-11	-112	1917	-8	-13	-45
1666	-7	-99	1922	-8	-13	-45
1671	-1	-101	1920	-8	-13	-45
1676	-12	-109	1909	-52	25	94
1681	-4	-103	1916	-52	25	94
1686	-9	-100	1932	-52	25	94
1691	-8	-114	1918	-52	25	94
1696	-12	-100	1922	-52	25	94
1701	1	-113	1917	-52	25	94
1706	0	-103	1907	-52	25	94
1711	-6	-103	1913	4	-2	-33
1716	-5	-101	1903	4	-2	-33
1721	-12	-99	1935	4	-2	-33
1726	-19	-107	1927	4	-2	-33
1731	-7	-102	1910	4	-2	-33
1736	-14	-95	1920	4	-2	-33
1741	-7	-105	1925	-42	25	-39
1746	-11	-104	1913	-42	25	-39
1751	-3	-109	1916	-42	25	-39
1756	-6	-106	1914	-42	25	-39
1761	-7	-103	1906	-42	25	-39
1766	-20	-103	1912	-42	25	-39
1771	-14	-104	1922	-60	39	-20
1776	0	-107	1927	-60	39	-20
1781	-8	-106	1933	-60	39	-20
1786	-5	-95	1916	-60	39	-20
1791	-12	-99	1905	-60	39	-20
1796	-13	-113	1909	-60	39	-20
1801	-10	-107	1922	-74	41	-59
1806	-7	-97	1917	-74	41	-59
1811	-8	-107	1928	-74	41	-59
1816	-6	-98	1920	-74	41	-59
1821	-14	-110	1921	-74	41	-59
1826	-17	-105	1918	-74	41	-59
1831	-10	-112	1928	-19	32	39
1836	-11	-106	1912	-19	32	39
1841	-6	-109	1914	-19	32	39
1846	-12	-98	1920	-19	32	39
1851	-2	-103	1911	-19	32	39
1856	-17	-105	1934	-19	32	39
1861	-5	-106	1911	-19	32	39
1866	-9	-104	1915	-22	-3	-1
1871	-12	-103	1919	-22	-3	-1
1876	-9	-107	1922	-22	-3	-1
1881	-6	-104	1923	-22	-3	-1
1886	-6	-105	1919	-22	-3	-1
1891	-10	-103	1914	-22	-3	-1
1896	-15	-104	1910	-18	35	-23
1901	-10	-104	1925	-18	35	-23
1906	-11	-94	1914	-18	35	-23
1911	-15	-113	1923	-18	35	-23
1916	-13	-103	1918	-18	35	-23
1921	-15	-103	1925	-18	35	-23
1926	-10	-104	1914	-39	-25	59
1931	-7	-107	1914	-39	-25	59
1936	-7	-107	1922	-39	-25	59
1941	-8	-110	1932	-39	-25	59
1946	-17	-101	1933	-39	-25	59
1951	-5	-100	1927	-39	-25	59
1956	-8	-100	1910	-29	11	-38
1961	-6	-104	1922	-29	11	-38
1966	-2	-101	1934	-29	11	-38
1971	-4	-109	1918	-29	11	-38
1976	-2	-109	1913	-29	11	-38
1981	-2	-106	1907	-29	11	-38
1986	-3	-100	1921	-53	57	-7
1991	-8	-104	1925	-53	57	-7
1996	-1	-104	1914	-53	57	-7
2001	-5	-111	1929	-53	57	-7
2006	-13	-101	1924	-53	57	-7
2011	-4	-112	1918	-53	57	-7
2016	-9	-105	1923	-53	57	-7
2021	-10	-101	1930	-86	45	-105
2026	-12	-98	1918	-86	45	-105
2031	-1	-105	1918	-86	45	-105
2036	-12	-100	1919	-86	45	-105
2041	-6	-105	1926	-86	45	-105
2046	-8	-102	1908	-86	45	-105
2051	-12	-103	1926	-39	-33	64
2056	-18	-112	1926	-39	-33	64
2061	-22	-105	1918	-39	-33	64
2066	-10	-101	1921	-39	-33	64
2071	-12	-103	1924	-39	-33	64
2076	-8	-106	1902	-39	-33	64
2081	-8	-99	1921	-18	1	2
2086	-7	-109	1927	-18	1	2
2091	-12	-103	1925	-18	1	2
2096	-13	-109	1925	-18	1	2
2101	-3	-98	1917	-18	1	2
2106	-6	-102	1898	-18	1	2
2111	-9	-105	1913	-26	-31	-5
2116	-4	-108	1908	-26	-31	-5
2121	-12	-104	1925	-26	-31	-5
2126	-7	-111	1918	-26	-31	-5
2131	-5	-100	1923	-26	-31	-5
2136	-13	-104	1917	-26	-31	-5
2141	-4	-112	1923	-51	-33	-7
2146	-22	-108	1930	-51	-33	-7
2151	-12	-110	1928	-51	-33	-7
2156	0	-105	1921	-51	-33	-7
2161	0	-107	1924	-51	-33	-7
2166	-8	-105	1928	-51	-33	-7
2171	-6	-103	1920	-51	-33	-7
2176	-8	-104	1917	-60	38	-48
2181	-2	-111	1919	-60	38	-48
2186	-10	-108	1921	-60	38	-48
2191	-5	-100	1918	-60	38	-48
2196	-9	-104	1919	-60	38	-48
2201	-3	-103	1932	-60	38	-48
2206	-5	-104	1922	-78	65	-2
2211	-2	-103	1924	-78	65	-2
2216	-6	-102	1921	-78	65	-2
2221	-14	-106	1937	-78	65	-2
2226	-3	-107	1935	-78	65	-2
2231	-6	-107	1915	-78	65	-2
2236	-10	-105	1913	-90	39	-105
2241	-5	-100	1918	-90	39	-105
2246	-8	-99	1920	-90	39	-105
2251	2	-94	1911	-90	39	-105
2256	-7	-111	1920	-90	39	-105
2261	-8	-107	1917	-90	39	-105
2266	-6	-95	1914	-39	9	68
2271	-3	-106	1909	-39	9	68
2276	-8	-102	1925	-39	9	68
2281	-7	-99	1924	-39	9	68
2286	-14	-99	1927	-39	9	68
2291	-8	-100	1923	-39	9	68
2296	-11	-104	1922	-42	-5	-121
2301	-6	-106	1918	-42	-5	-121
2306	-12	-103	1918	-42	-5	-121
2311	-2	-108	1919	-42	-5	-121
2316	-6	-104	1905	-42	-5	-121
2321	-9	-100	1917	-42	-5	-121
2326	-8	-101	1919	-42	-5	-121
2331	-1	-102	1926	-42	-2	-12
2336	-3	-109	1915	-42	-2	-12
2341	-6	-105	1918	-42	-2	-12
2346	-9	-97	1909	-42	-2	-12
2351	-15	-106	1923	-42	-2	-12
2356	-9	-98	1916	-42	-2	-12
2361	1	-110	1932	-51	12	11
2366	-5	-108	1910	-51	12	11
2371	-1	-104	1932	-51	12	11
2376	-13	-104	1916	-51	12	11
2381	-13	-110	1929	-51	12	11
2386	-12	-113	1929	-51	12	11
2391	-7	-112	1918	-84	-11	-33
2396	-12	-100	1918	-84	-11	-33
2401	-18	-112	1920	-84	-11	-33
2406	-10	-102	1913	-84	-11	-33
2411	-8	-109	1923	-84	-11	-33
2416	-4	-99	1924	-84	-11	-33
2421	-3	-112	1921	-90	11	72
2426	-6	-103	1928	-90	11	72
2431	-12	-110	1926	-90	11	72
2436	-10	-100	1914	-90	11	72
2441	-4	-111	1919	-90	11	72
2446	2	-103	1918	-90	11	72
2451	-6	-100	1929	-73	59	-12
2456	-17	-104	1916	-73	59	-12
2461	-4	-98	1921	-73	59	-12
2466	-6	-101	1907	-73	59	-12
2471	-7	-112	1924	-73	59	-12
2476	-11	-102	1909	-73	59	-12
2481	4	-101	1905	-73	59	-12
2486	0	-95	1902	-42	15	127
2491	-11	-96	1916	-42	15	127
2496	-12	-103	1920	-42	15	127
2501	-1	-106	1913	-42	15	127
2506	-9	-95	1922	-42	15	127
2511	-11	-102	1911	-42	15	127
2516	-7	-106	1902	-45	-22	-77
2521	-10	-101	1918	-45	-22	-77
2526	-6	-109	1919	-45	-22	-77
2531	-9	-102	1913	-45	-22	-77
2536	-6	-105	1916	-45	-22	-77
2541	-4	-108	1917	-45	-22	-77
2546	-8	-102	1898	-84	-8	-18
2551	-13	-110	1908	-84	-8	-18
2556	-12	-103	1905	-84	-8	-18
2561	-5	-106	1903	-84	-8	-18
2566	1	-104	1917	-84	-8	-18
2571	2	-97	1910	-84	-8	-18
2576	-8	-105	1910	1	-15	9
2581	-13	-101	1912	1	-15	9
2586	-6	-108	1919	1	-15	9
2591	-3	-101	1916	1	-15	9
2596	-4	-103	1919	1	-15	9
2601	-4	-100	1907	1	-15	9
2606	-14	-103	1916	27	32	-11
2611	-11	-109	1921	27	32	-11
2616	-6	-107	1930	27	32	-11
2621	-5	-107	1923	27	32	-11
2626	-6	-102	1917	27	32	-11
2631	3	-108	1933	27	32	-11
2636	-5	-94	1918	27	32	-11
2641	-4	-109	1911	-99	25	24
2646	-4	-102	1906	-99	25	24
2651	-5	-104	1907	-99	25	24
2656	-12	-95	1923	-99	25	24
2661	-8	-114	1924	-99	25	24
2666	-10	-101	1925	-99	25	24
2671	-6	-99	1925	5	24	-133
2676	-10	-101	1918	5	24	-133
2681	-9	-103	1913	5	24	-133
2686	-9	-104	1911	5	24	-133
2691	-1	-111	1924	5	24	-133
2696	-19	-103	1912	5	24	-133
2701	-1	-106	1923	-21	11	108
2706	-10	-103	1909	-21	11	108
2711	-12	-103	1921	-21	11	108
2716	-8	-109	1921	-21	11	108
2721	-14	-103	1925	-21	11	108
2726	-7	-101	1923	-21	11	108
2731	-8	-106	1917	-100	28	-38
2736	-11	-97	1925	-100	28	-38
2741	-3	-107	1927	-100	28	-38
2746	-6	-104	1905	-100	28	-38
2751	2	-100	1924	-100	28	-38
2756	-3	-109	1924	-100	28	-38
2761	-5	-105	1921	-51	11	-150
2766	7	-103	1927	-51	11	-150
2771	-5	-102	1924	-51	11	-150
2776	-12	-109	1914	-51	11	-150
2781	-5	-109	1924	-51	11	-150
2786	-8	-106	1921	-51	11	-150
2791	-14	-96	1917	-51	11	-150
2796	-15	-106	1911	-43	-11	-56
2801	-1	-108	1919	-43	-11	-56
2806	-3	-106	1906	-43	-11	-56
2811	3	-105	1921	-43	-11	-56
2816	-6	-99	1922	-43	-11	-56
2821	1	-95	1923	-43	-11	-56
2826	-9	-101	1924	-45	31	-27
2831	-18	-97	1916	-45	31	-27
2836	-10	-109	1924	-45	31	-27
2841	-12	-105	1923	-45	31	-27
2846	-13	-101	1939	-45	31	-27
2851	-7	-107	1918	-45	31	-27
2856	-8	-103	1930	-54	35	-26
2861	-9	-109	1920	-54	35	-26
2866	-13	-107	1923	-54	35	-26
2871	-10	-107	1909	-54	35	-26
2876	-7	-107	1924	-54	35	-26
2881	-4	-110	1937	-54	35	-26
2886	-1	-105	1904	-51	2	-80
2891	0	-104	1919	-51	2	-80
2896	-14	-102	1919	-51	2	-80
2901	-10	-103	1926	-51	2	-80
2906	-8	-105	1924	-51	2	-80
2911	-13	-102	1910	-51	2	-80
2916	-17	-104	1937	-28	9	74
2921	-11	-103	1921	-28	9	74
2926	-12	-104	1904	-28	9	74
2931	4	-107	1919	-28	9	74
2936	1	-111	1934	-28	9	74
2941	-5	-108	1928	-28	9	74
2946	-9	-102	1930	-28	9	74
2951	-11	-103	1926	-38	2	23
2956	-10	-102	1917	-38	2	23
2961	-7	-107	1922	-38	2	23
2966	-4	-104	1919	-38	2	23
2971	-10	-102	1905	-38	2	23
2976	-10	-102	1910	-38	2	23
2981	-7	-109	1923	8	8	17
2986	-7	-108	1921	8	8	17
2991	4	-101	1919	8	8	17
2996	-5	-101	1927	8	8	17
3001	-9	-107	1912	8	8	17
3006	-16	-96	1920	8	8	17
3011	-8	-105	1928	-62	25	-20
3016	-10	-95	1917	-62	25	-20
3021	-7	-104	1918	-62	25	-20
3026	-17	-105	1903	-62	25	-20
3031	-15	-101	1920	-62	25	-20
3036	-4	-95	1919	-62	25	-20
3041	-12	-111	1918	-93	37	-42
3046	0	-110	1910	-93	37	-42
3051	-11	-102	1929	-93	37	-42
3056	-7	-103	1922	-93	37	-42
3061	-1	-99	1920	-93	37	-42
3066	-6	-101	1912	-93	37	-42
3071	-6	-103	1918	-77	98	-23
3076	-20	-105	1922	-77	98	-23
3081	-15	-101	1923	-77	98	-23
3086	-3	-103	1902	-77	98	-23
3091	-10	-108	1922	-77	98	-23
3096	-9	-105	1928	-77	98	-23
3101	-5	-108	1926	-77	98	-23
3106	-13	-103	1941	-77	-5	-89
3111	-5	-97	1916	-77	-5	-89
3116	-5	-108	1905	-77	-5	-89
3121	-10	-99	1908	-77	-5	-89
3126	-4	-101	1916	-77	-5	-89
3131	-5	-101	1920	-77	-5	-89
3136	-12	-102	1930	-48	-10	52
3141	2	-108	1915	-48	-10	52
3146	-4	-106	1919	-48	-10	52
3151	-15	-111	1912	-48	-10	52
3156	-9	-100	1923	-48	-10	52
3161	-9	-100	1925	-48	-10	52
3166	-14	-99	1925	-28	-13	14
3171	-9	-102	1914	-28	-13	14
3176	-9	-101	1911	-28	-13	14
3181	-4	-101	1916	-28	-13	14
3186	-6	-107	1907	-28	-13	14
3191	-7	-106	1931	-28	-13	14
3196	-8	-110	1919	-47	-28	-15
3201	-12	-97	1921	-47	-28	-15
3206	-2	-99	1909	-47	-28	-15
3211	-10	-97	1921	-47	-28	-15
3216	-7	-103	1938	-47	-28	-15
3221	-11	-105	1916	-47	-28	-15
3226	-5	-109	1913	-48	-29	64
3231	-9	-103	1904	-48	-29	64
3236	-2	-99	1912	-48	-29	64
3241	-9	-105	1922	-48	-29	64
3246	-5	-102	1917	-48	-29	64
3251	-11	-101	1918	-48	-29	64
3256	-1	-106	1912	-48	-29	64
3261	2	-102	1936	-12	-19	-77
3266	-4	-103	1920	-12	-19	-77
3271	-8	-107	1922	-12	-19	-77
3276	-21	-109	1933	-12	-19	-77
3281	-8	-101	1924	-12	-19	-77
3286	0	-105	1916	-12	-19	-77
3291	-6	-102	1929	-60	27	-4
3296	-5	-105	1919	-60	27	-4
3301	-14	-105	1929	-60	27	-4
3306	-5	-106	1937	-60	27	-4
3311	-9	-99	1904	-60	27	-4
3316	2	-112	1920	-60	27	-4
3321	-7	-97	1917	-25	55	-97
3326	-13	-107	1909	-25	55	-97
3331	-16	-105	1915	-25	55	-97
3336	-8	-104	1917	-25	55	-97
3341	-7	-96	1924	-25	55	-97
3346	-9	-99	1917	-25	55	-97
3351	-4	-108	1935	5	8	17
3356	-9	-95	1917	5	8	17
3361	-4	-97	1931	5	8	17
3366	-3	-105	1936	5	8	17
3371	0	-107	1921	5	8	17
3376	-6	-97	1914	5	8	17
3381	-5	-108	1912	-29	18	-115
3386	-8	-105	1905	-29	18	-115
3391	-10	-96	1920	-29	18	-115
3396	1	-109	1917	-29	18	-115
3401	1	-105	1929	-29	18	-115
3406	-7	-105	1930	-29	18	-115
3411	-7	-102	1945	-29	18	-115
3416	-12	-102	1927	-47	21	-30
3421	-10	-110	1915	-47	21	-30
3426	-6	-102	1928	-47	21	-30
3431	4	-105	1919	-47	21	-30
3436	-7	-110	1928	-47	21	-30
3441	-4	-102	1918	-47	21	-30
3446	-14	-108	1923	-33	-10	-11
3451	-10	-97	1922	-33	-10	-11
3456	-5	-102	1916	-33	-10	-11
3461	-1	-106	1926	-33	-10	-11
3466	-12	-106	1920	-33	-10	-11
3471	-13	-107	1908	-33	-10	-11
3476	-5	-114	1926	-67	27	-74
3481	-10	-101	1920	-67	27	-74
3486	-2	-100	1909	-67	27	-74
3491	-5	-104	1913	-67	27	-74
3496	-11	-106	1925	-67	27	-74
3501	-8	-97	1914	-67	27	-74
3506	-10	-106	1917	-72	-2	71
3511	-9	-102	1927	-72	-2	71
3516	-5	-103	1916	-72	-2	71
3521	-4	-102	1914	-72	-2	71
3526	-8	-110	1917	-72	-2	71
3531	-9	-103	1916	-72	-2	71
3536	-6	-105	1916	-52	8	-146
3541	-11	-105	1920	-52	8	-146
3546	1	-103	1921	-52	8	-146
3551	0	-105	1914	-52	8	-146
3556	-15	-99	1942	-52	8	-146
3561	-14	-105	1919	-52	8	-146
3566	-8	-103	1926	-52	8	-146
3571	-7	-103	1915	-48	8	130
3576	-8	-108	1926	-48	8	130
3581	-5	-95	1923	-48	8	130
3586	-10	-103	1911	-48	8	130
3591	-16	-108	1919	-48	8	130
3596	-10	-113	1930	-48	8	130
3601	-7	-103	1925	-40	-21	37
3606	-4	-101	1912	-40	-21	37
3611	-6	-95	1925	-40	-21	37
3616	-7	-108	1928	-40	-21	37
3621	-16	-109	1923	-40	-21	37
3626	-13	-108	1917	-40	-21	37
3631	1	-103	1919	-49	-55	-48
3636	-10	-109	1924	-49	-55	-48
3641	-6	-101	1914	-49	-55	-48
3646	-11	-104	1915	-49	-55	-48
3651	-4	-113	1907	-49	-55	-48
3656	-5	-109	1926	-49	-55	-48
3661	-12	-98	1921	-31	27	24
3666	-6	-97	1909	-31	27	24
3671	-11	-104	1933	-31	27	24
3676	-9	-104	1922	-31	27	24
3681	-11	-111	1935	-31	27	24
3686	-4	-107	1907	-31	27	24
3691	-11	-106	1919	-43	18	-42
3696	-2	-108	1922	-43	18	-42
3701	-2	-101	1921	-43	18	-42
3706	-14	-104	1930	-43	18	-42
3711	-12	-106	1937	-43	18	-42
3716	-6	-110	1915	-43	18	-42
3721	1	-105	1915	-43	18	-42
3726	-13	-106	1916	-79	-15	61
3731	0	-105	1912	-79	-15	61
3736	-15	-104	1918	-79	-15	61
3741	-2	-103	1920	-79	-15	61
3746	-14	-111	1929	-79	-15	61
3751	-7	-98	1922	-79	-15	61
3756	-4	-108	1923	-21	24	-128
3761	-12	-97	1926	-21	24	-128
3766	-10	-101	1929	-21	24	-128
3771	-2	-104	1933	-21	24	-128
3776	-1	-103	1910	-21	24	-128
3781	-12	-101	1921	-21	24	-128
3786	-8	-104	1926	-34	42	93
3791	-6	-105	1918	-34	42	93
3796	-4	-110	1916	-34	42	93
3801	-12	-101	1905	-34	42	93
3806	5	-108	1907	-34	42	93
3811	-3	-102	1922	-34	42	93
3816	-9	-106	1912	-29	2	-77
3821	3	-110	1924	-29	2	-77
3826	-4	-101	1903	-29	2	-77
3831	-5	-104	1911	-29	2	-77
3836	-1	-106	1928	-29	2	-77
3841	-12	-91	1921	-29	2	-77
3846	-13	-105	1918	-34	55	17
3851	-7	-107	1907	-34	55	17
3856	-14	-106	1929	-34	55	17
3861	-3	-109	1922	-34	55	17
3866	3	-100	1919	-34	55	17
3871	-7	-104	1923	-34	55	17
3876	-11	-105	1913	-34	55	17
3881	-9	-110	1924	-22	38	30
3886	0	-100	1914	-22	38	30
3891	-4	-101	1917	-22	38	30
3896	-15	-103	1916	-22	38	30
3901	-12	-101	1903	-22	38	30
3906	-15	-109	1919	-22	38	30
3911	-4	-101	1920	-32	-33	-27
3916	-11	-104	1919	-32	-33	-27
3921	-6	-102	1915	-32	-33	-27
3926	-1	-106	1907	-32	-33	-27
3931	-11	-100	1905	-32	-33	-27
3936	-2	-105	1920	-32	-33	-27
3941	-1	-103	1918	-30	35	43
3946	-17	-97	1922	-30	35	43
3951	0	-100	1919	-30	35	43
3956	-10	-105	1924	-30	35	43
3961	-4	-99	1924	-30	35	43
3966	-6	-102	1924	-30	35	43
3971	0	-103	1925	0	-3	-80
3976	-4	-102	1928	0	-3	-80
3981	1	-102	1923	0	-3	-80
3986	-9	-105	1901	0	-3	-80
3991	-11	-103	1910	0	-3	-80
3996	-13	-102	1910	0	-3	-80
4001	-14	-107	1923	-31	4	77
4006	-2	-107	1915	-31	4	77
4011	-12	-104	1918	-31	4	77
4016	-8	-94	1913	-31	4	77
4021	-12	-102	1912	-31	4	77
4026	-11	-106	1910	-31	4	77
4031	-7	-104	1918	-31	4	77
4036	-5	-99	1921	-6	-13	-40
4041	-7	-109	1919	-6	-13	-40
4046	-11	-101	1910	-6	-13	-40
4051	-10	-105	1924	-6	-13	-40
4056	-6	-108	1902	-6	-13	-40
4061	-10	-105	1914	-6	-13	-40
4066	-9	-91	1909	-38	-23	-17
4071	-7	-102	1905	-38	-23	-17
4076	-12	-108	1916	-38	-23	-17
4081	-3	-104	1905	-38	-23	-17
4086	-2	-105	1921	-38	-23	-17
4091	-14	-105	1916	-38	-23	-17
4096	-7	-106	1910	-80	2	-46
4101	-11	-102	1907	-80	2	-46
4106	2	-111	1917	-80	2	-46
4111	-1	-107	1921	-80	2	-46
4116	-15	-105	1926	-80	2	-46
4121	-5	-100	1913	-80	2	-46
4126	-5	-106	1897	-74	47	-18
4131	-5	-108	1897	-74	47	-18
4136	-10	-104	1916	-74	47	-18
4141	-11	-97	1919	-74	47	-18
4146	-6	-102	1920	-74	47	-18
4151	-2	-99	1922	-74	47	-18
4156	-8	-98	1931	-35	15	115
4161	1	-102	1921	-35	15	115
4166	-13	-102	1909	-35	15	115
4171	-5	-103	1916	-35	15	115
4176	-7	-105	1919	-35	15	115
4181	0	-111	1920	-35	15	115
4186	-14	-101	1918	-35	15	115
4191	-10	-107	1912	-2	-19	-96
4196	-11	-103	1911	-2	-19	-96
4201	-3	-97	1922	-2	-19	-96
4206	-7	-99	1925	-2	-19	-96
4211	-11	-103	1921	-2	-19	-96
4216	-14	-95	1917	-2	-19	-96
4221	-7	-105	1926	-40	-22	80
4226	-11	-94	1917	-40	-22	80
4231	-5	-98	1916	-40	-22	80
4236	-3	-110	1922	-40	-22	80
4241	-6	-105	1919	-40	-22	80
4246	-14	-96	1913	-40	-22	80
4251	-5	-108	1906	-8	-5	-15
4256	-12	-106	1921	-8	-5	-15
4261	-7	-116	1922	-8	-5	-15
4266	-7	-102	1917	-8	-5	-15
4271	-1	-107	1914	-8	-5	-15
4276	-7	-106	1932	-8	-5	-15
4281	-8	-109	1919	-14	-29	-15
4286	-9	-100	1914	-14	-29	-15
4291	-10	-94	1902	-14	-29	-15
4296	-5	-98	1918	-14	-29	-15
4301	-14	-100	1924	-14	-29	-15
4306	-7	-103	1926	-14	-29	-15
4311	-10	-104	1920	-82	88	-46
4316	-9	-105	1928	-82	88	-46
4321	1	-104	1923	-82	88	-46
4326	-3	-99	1914	-82	88	-46
4331	-10	-105	1917	-82	88	-46
4336	-11	-100	1921	-82	88	-46
4341	-12	-102	1928	-82	88	-46
4346	-5	-109	1923	-78	-1	-48
4351	-5	-109	1912	-78	-1	-48
4356	-9	-108	1916	-78	-1	-48
4361	-8	-100	1916	-78	-1	-48
4366	-18	-103	1908	-78	-1	-48
4371	-11	-97	1921	-78	-1	-48
4376	-12	-105	1925	-67	21	23
4381	6	-107	1907	-67	21	23
4386	-4	-104	1929	-67	21	23
4391	-11	-103	1916	-67	21	23
4396	-11	-99	1917	-67	21	23
4401	-4	-105	1920	-67	21	23
4406	-5	-106	1914	-46	44	-111
4411	-12	-104	1912	-46	44	-111
4416	0	-103	1926	-46	44	-111
4421	-9	-95	1916	-46	44	-111
4426	-18	-108	1919	-46	44	-111
4431	-3	-93	1925	-46	44	-111
4436	-8	-102	1929	-22	-11	1
4441	-8	-106	1931	-22	-11	1
4446	-8	-103	1923	-22	-11	1
4451	-9	-111	1932	-22	-11	1
4456	-14	-107	1923	-22	-11	1
4461	-4	-108	1916	-22	-11	1
4466	-9	-105	1917	-38	64	-23
4471	-5	-109	1917	-38	64	-23
4476	-7	-103	1917	-38	64	-23
4481	-13	-101	1926	-38	64	-23
4486	-12	-104	1930	-38	64	-23
4491	-7	-108	1929	-38	64	-23
4496	-11	-108	1924	-38	64	-23
4501	-4	-104	1919	-47	12	-29
4506	-20	-105	1924	-47	12	-29
4511	-7	-107	1929	-47	12	-29
4516	-8	-104	1917	-47	12	-29
4521	-6	-103	1927	-47	12	-29
4526	-6	-100	1927	-47	12	-29
4531	0	-108	1925	-41	-17	46
4536	-7	-104	1915	-41	-17	46
4541	-16	-108	1914	-41	-17	46
4546	-10	-107	1915	-41	-17	46
4551	-9	-100	1916	-41	-17	46
4556	-11	-101	1914	-41	-17	46
4561	-11	-99	1916	-39	2	-97
4566	-15	-102	1914	-39	2	-97
4571	-16	-112	1923	-39	2	-97
4576	-10	-105	1914	-39	2	-97
4581	-8	-104	1928	-39	2	-97
4586	-4	-99	1922	-39	2	-97
4591	-12	-107	1917	-71	34	36
4596	-7	-100	1917	-71	34	36
4601	-8	-98	1913	-71	34	36
4606	-7	-103	1924	-71	34	36
4611	-10	-105	1939	-71	34	36
4616	-5	-102	1922	-71	34	36
4621	-9	-108	1918	-28	-52	33
4626	-7	-106	1925	-28	-52	33
4631	-4	-102	1922	-28	-52	33
4636	-1	-106	1922	-28	-52	33
4641	-5	-107	1914	-28	-52	33
4646	-9	-107	1905	-28	-52	33
4651	-10	-108	1924	-28	-52	33
4656	-14	-99	1912	4	18	46
4661	-9	-110	1914	4	18	46
4666	-9	-102	1933	4	18	46
4671	0	-104	1920	4	18	46
4676	-1	-102	1903	4	18	46
4681	-10	-109	1925	4	18	46
4686	-13	-103	1920	-24	22	49
4691	-9	-98	1924	-24	22	49
4696	-8	-108	1924	-24	22	49
4701	-8	-98	1916	-24	22	49
4706	-2	-111	1915	-24	22	49
4711	-14	-105	1926	-24	22	49
4716	-4	-106	1911	-42	22	-36
4721	-13	-106	1925	-42	22	-36
4726	-3	-96	1913	-42	22	-36
4731	-13	-105	1922	-42	22	-36
4736	-3	-104	1911	-42	22	-36
4741	-15	-103	1923	-42	22	-36
4746	-3	-101	1926	-48	-5	67
4751	-9	-109	1915	-48	-5	67
4756	-2	-99	1909	-48	-5	67
4761	0	-99	1915	-48	-5	67
4766	-16	-97	1925	-48	-5	67
4771	-7	-110	1924	-48	-5	67
4776	-10	-97	1922	-25	-8	-12
4781	-7	-105	1917	-25	-8	-12
4786	-9	-102	1925	-25	-8	-12
4791	-6	-104	1914	-25	-8	-12
4796	-9	-108	1902	-25	-8	-12
4801	-8	-108	1928	-25	-8	-12
4806	-6	-94	1916	-25	-8	-12
4811	-5	-102	1921	-48	5	65
4816	-2	-104	1917	-48	5	65
4821	-8	-99	1930	-48	5	65
4826	-15	-110	1903	-48	5	65
4831	-11	-110	1915	-48	5	65
4836	-6	-104	1932	-48	5	65
4841	-4	-105	1928	-68	44	-92
4846	-3	-100	1917	-68	44	-92
4851	-6	-107	1929	-68	44	-92
4856	-10	-103	1910	-68	44	-92
4861	-15	-108	1921	-68	44	-92
4866	-5	-99	1923	-68	44	-92
4871	-6	-101	1914	-28	41	74
4876	0	-112	1934	-28	41	74
4881	-10	-107	1920	-28	41	74
4886	-12	-103	1927	-28	41	74
4891	-13	-106	1910	-28	41	74
4896	0	-111	1906	-28	41	74
4901	-4	-104	1908	-24	18	42
4906	-4	-109	1924	-24	18	42
4911	-17	-104	1915	-24	18	42
4916	-2	-112	1928	-24	18	42
4921	-13	-109	1914	-24	18	42
4926	-12	-109	1931	-24	18	42
4931	-8	-107	1923	-61	-12	-1
4936	-6	-105	1923	-61	-12	-1
4941	-4	-103	1918	-61	-12	-1
4946	-16	-107	1922	-61	-12	-1
4951	-10	-99	1924	-61	-12	-1
4956	-8	-105	1923	-61	-12	-1
4961	-6	-108	1927	-61	-12	-1
4966	-6	-106	1917	-73	4	37
4971	-7	-100	1916	-73	4	37
4976	-2	-105	1915	-73	4	37
4981	-5	-105	1917	-73	4	37
4986	-6	-102	1917	-73	4	37
4991	-7	-114	1922	-73	4	37
4996	-9	-105	1916	-50	31	-36
5001	-14	-108	1912	-50	31	-36
5006	-7	-112	1929	-50	31	-36
5011	-8	-105	1915	-50	31	-36
5016	-8	-109	1931	-50	31	-36
5021	-11	-105	1926	-50	31	-36
5026	-6	-108	1917	-52	0	59
5031	-10	-105	1926	-52	0	59
5036	-4	-102	1913	-52	0	59
5041	-14	-99	1917	-52	0	59
5046	-4	-110	1922	-52	0	59
5051	3	-106	1919	-52	0	59
5056	-8	-110	1921	-39	-7	-92
5061	-2	-106	1917	-39	-7	-92
5066	-1	-110	1925	-39	-7	-92
5071	-6	-109	1927	-39	-7	-92
5076	-10	-108	1919	-39	-7	-92
5081	-8	-110	1911	-39	-7	-92
5086	-14	-104	1905	-46	52	75
5091	-12	-98	1934	-46	52	75
5096	-8	-104	1918	-46	52	75
5101	-9	-106	1936	-46	52	75
5106	-12	-110	1920	-46	52	75
5111	-11	-101	1908	-46	52	75
5116	-8	-106	1923	-46	52	75
5121	-11	-109	1907	-51	-33	-17
5126	-8	-106	1904	-51	-33	-17
5131	-6	-98	1918	-51	-33	-17
5136	-12	-99	1919	-51	-33	-17
5141	-10	-101	1921	-51	-33	-17
5146	-9	-103	1915	-51	-33	-17
5151	-7	-104	1917	-55	57	-30
5156	-7	-95	1913	-55	57	-30
5161	-5	-104	1923	-55	57	-30
5166	-8	-110	1917	-55	57	-30
5171	-12	-100	1915	-55	57	-30
5176	-9	-100	1924	-55	57	-30
5181	-3	-103	1914	-32	51	-30
5186	-9	-101	1923	-32	51	-30
5191	-7	-99	1922	-32	51	-30
5196	-3	-101	1926	-32	51	-30
5201	-11	-108	1920	-32	51	-30
5206	-15	-105	1913	-32	51	-30
5211	-17	-98	1924	-77	44	-37
5216	-10	-96	1914	-77	44	-37
5221	-8	-111	1917	-77	44	-37
5226	-7	-101	1914	-77	44	-37
5231	-13	-105	1922	-77	44	-37
5236	-11	-103	1904	-77	44	-37
5241	-15	-105	1935	-51	-49	159
5246	-7	-107	1909	-51	-49	159
5251	0	-103	1921	-51	-49	159
5256	1	-99	1910	-51	-49	159
5261	-14	-106	1923	-51	-49	159
5266	-18	-106	1919	-51	-49	159
5271	-10	-105	1917	-51	-49	159
5276	-9	-110	1930	-13	-3	-97
5281	-12	-100	1921	-13	-3	-97
5286	-12	-100	1900	-13	-3	-97
5291	-8	-96	1925	-13	-3	-97
5296	-8	-109	1932	-13	-3	-97
5301	-11	-104	1919	-13	-3	-97
5306	-14	-104	1927	-34	1	37
5311	-8	-102	1908	-34	1	37
5316	-1	-99	1925	-34	1	37
5321	-13	-107	1901	-34	1	37
5326	-6	-102	1925	-34	1	37
5331	-2	-98	1917	-34	1	37
5336	-8	-107	1927	-43	-13	-15
5341	-4	-97	1918	-43	-13	-15
5346	-9	-107	1911	-43	-13	-15
5351	-8	-107	1919	-43	-13	-15
5356	-5	-109	1915	-43	-13	-15
5361	-14	-104	1931	-43	-13	-15
5366	-4	-103	1913	-41	17	-17
5371	0	-102	1914	-41	17	-17
5376	-10	-107	1914	-41	17	-17
5381	-7	-104	1913	-41	17	-17
5386	-1	-108	1914	-41	17	-17
5391	-7	-104	1919	-41	17	-17
5396	-12	-111	1929	-58	34	-93
5401	-12	-101	1924	-58	34	-93
5406	-10	-104	1912	-58	34	-93
5411	-14	-95	1919	-58	34	-93
5416	2	-103	1919	-58	34	-93
5421	-3	-99	1914	-58	34	-93
5426	2	-102	1914	-58	34	-93
5431	-7	-101	1929	-79	-2	-2
5436	-10	-102	1913	-79	-2	-2
5441	-8	-105	1931	-79	-2	-2
5446	-14	-96	1922	-79	-2	-2
5451	-9	-105	1934	-79	-2	-2
5456	-3	-111	1913	-79	-2	-2
5461	-8	-99	1927	-51	39	-20
5466	-9	-108	1924	-51	39	-20
5471	-10	-103	1911	-51	39	-20
5476	-3	-106	1915	-51	39	-20
5481	-5	-106	1926	-51	39	-20
5486	-11	-111	1919	-51	39	-20
5491	-10	-104	1912	-51	34	-65
5496	-9	-109	1913	-51	34	-65
5501	-6	-105	1926	-51	34	-65
5506	-3	-108	1917	-51	34	-65
5511	-7	-103	1925	-51	34	-65
5516	-7	-109	1923	-51	34	-65
5521	-4	-97	1919	-34	2	89
5526	-8	-103	1933	-34	2	89
5531	-3	-104	1924	-34	2	89
5536	-4	-100	1918	-34	2	89
5541	-6	-105	1917	-34	2	89
5549	-3	-102	1917	-34	2	89
5551	-11	-104	1914	-54	28	-77
5556	-11	-113	1914	-54	28	-77
5561	-4	-101	1916	-54	28	-77
5566	-2	-107	1909	-54	28	-77
5571	-5	-106	1920	-54	28	-77
5576	-6	-104	1919	-54	28	-77
5581	4	-111	1916	-54	28	-77
5586	-5	-103	1924	-2	24	-12
5591	-2	-104	1934	-2	24	-12
5596	-7	-98	1920	-2	24	-12
5601	-6	-101	1914	-2	24	-12
5606	-7	-97	1920	-2	24	-12
5611	-11	-103	1922	-2	24	-12
5616	1	-105	1918	-57	-15	-75
5621	-6	-100	1909	-57	-15	-75
5626	0	-100	1914	-57	-15	-75
5631	-6	-97	1920	-57	-15	-75
5636	-14	-106	1909	-57	-15	-75
5641	-8	-105	1934	-57	-15	-75
5646	2	-100	1917	-70	58	-26
5651	-5	-109	1919	-70	58	-26
5656	-2	-104	1898	-70	58	-26
5661	-9	-111	1920	-70	58	-26
5666	-7	-109	1919	-70	58	-26
5671	-7	-101	1929	-70	58	-26
5676	-12	-106	1926	-58	-8	29
5681	-10	-103	1922	-58	-8	29
5686	0	-106	1927	-58	-8	29
5691	-9	-102	1928	-58	-8	29
5696	-5	-107	1918	-58	-8	29
5701	-7	-107	1932	-58	-8	29
5706	-7	-102	1921	-25	2	-97
5711	1	-98	1936	-25	2	-97
5716	-11	-98	1918	-25	2	-97
5721	-15	-101	1919	-25	2	-97
5726	-14	-107	1929	-25	2	-97
5731	-13	-94	1916	-25	2	-97
5736	-9	-106	1921	-25	2	-97
5741	-14	-98	1919	-51	29	26
5746	-6	-101	1925	-51	29	26
5751	-17	-108	1917	-51	29	26
5756	-16	-111	1927	-51	29	26
5761	-6	-106	1917	-51	29	26
5766	-13	-111	1919	-51	29	26
5771	-7	-99	1924	-22	45	14
5776	-12	-106	1919	-22	45	14
5781	-11	-103	1924	-22	45	14
5786	-5	-107	1912	-22	45	14
5791	-4	-98	1906	-22	45	14
5796	-3	-105	1924	-22	45	14
5801	-5	-112	1905	-37	14	-43
5806	-3	-99	1931	-37	14	-43
5811	-3	-97	1928	-37	14	-43
5816	-9	-106	1933	-37	14	-43
5821	-12	-106	1923	-37	14	-43
5826	-5	-110	1911	-37	14	-43
5831	-1	-103	1937	-28	-3	42
5836	-14	-96	1914	-28	-3	42
5841	-9	-101	1917	-28	-3	42
5846	-9	-108	1914	-28	-3	42
5851	-11	-102	1916	-28	-3	42
5856	-9	-107	1912	-28	-3	42
5861	-9	-98	1899	-28	69	-90
5866	-12	-102	1916	-28	69	-90
5871	-9	-106	1931	-28	69	-90
5876	-12	-102	1926	-28	69	-90
5881	-5	-102	1939	-28	69	-90
5886	-1	-103	1919	-28	69	-90
5891	-11	-101	1917	-28	69	-90
5896	-6	-98	1900	-68	62	75
5901	-11	-107	1927	-68	62	75
5906	-2	-103	1925	-68	62	75
5911	-10	-103	1916	-68	62	75
5916	0	-109	1921	-68	62	75
5921	-14	-108	1916	-68	62	75
5926	-4	-103	1917	-49	29	-140
5931	-11	-110	1928	-49	29	-140
5936	-6	-100	1925	-49	29	-140
5941	-2	-107	1937	-49	29	-140
5946	-3	-100	1928	-49	29	-140
5951	-12	-104	1917	-49	29	-140
5956	-5	-107	1917	-2	-29	-12
5961	-7	-105	1910	-2	-29	-12
5966	-15	-109	1912	-2	-29	-12
5971	-3	-109	1923	-2	-29	-12
5976	-5	-100	1909	-2	-29	-12
5981	-14	-103	1927	-2	-29	-12
5986	-11	-105	1919	-19	-22	58
5991	-6	-98	1918	-19	-22	58
5996	-4	-103	1918	-19	-22	58
6001	-7	-101	1918	-19	-22	58
6006	-8	-111	1928	-19	-22	58
6011	-14	-109	1916	-19	-22	58
6016	-9	-104	1916	-65	2	-24
6021	-1	-108	1912	-65	2	-24
6026	-8	-100	1918	-65	2	-24
6031	0	-105	1924	-65	2	-24
6036	-5	-102	1921	-65	2	-24
6041	-1	-102	1910	-65	2	-24
6046	-10	-101	1905	-65	2	-24
6051	-17	-103	1916	-49	-25	31
6056	-3	-105	1917	-49	-25	31
6061	1	-105	1927	-49	-25	31
6066	-10	-110	1909	-49	-25	31
6071	-11	-108	1919	-49	-25	31
6076	-4	-102	1910	-49	-25	31
6081	-17	-103	1911	-47	24	-96
6086	-7	-101	1916	-47	24	-96
6091	-7	-103	1925	-47	24	-96
6096	-11	-99	1910	-47	24	-96
6101	-7	-111	1922	-47	24	-96
6106	-8	-103	1924	-47	24	-96
6111	3	-100	1917	-45	8	70
6116	-6	-101	1927	-45	8	70
6121	-10	-104	1917	-45	8	70
6126	-11	-109	1908	-45	8	70
6131	-1	-97	1913	-45	8	70
6136	2	-100	1923	-45	8	70
6141	-10	-98	1924	-52	22	-106
6146	-12	-103	1919	-52	22	-106
6151	-11	-106	1935	-52	22	-106
6156	-6	-102	1921	-52	22	-106
6161	-14	-96	1915	-52	22	-106
6166	-9	-107	1919	-52	22	-106
6171	1	-101	1918	-31	37	87
6176	-3	-108	1911	-31	37	87
6181	-4	-105	1921	-31	37	87
6186	-12	-101	1909	-31	37	87
6191	-11	-103	1916	-31	37	87
6196	-7	-106	1907	-31	37	87
6201	-5	-106	1918	-31	37	87
6206	-3	-109	1924	-17	-2	20
6211	-1	-111	1916	-17	-2	20
6216	-4	-105	1907	-17	-2	20
6221	-8	-101	1921	-17	-2	20
6226	-12	-100	1919	-17	-2	20
6231	-4	-102	1912	-17	-2	20
6236	-11	-105	1917	-46	8	-67
6241	-3	-102	1912	-46	8	-67
6246	-9	-101	1913	-46	8	-67
6251	-6	-102	1927	-46	8	-67
6256	-1	-97	1922	-46	8	-67
6261	-12	-98	1916	-46	8	-67
6266	-6	-104	1920	-44	-12	-36
6271	-15	-102	1917	-44	-12	-36
6276	-7	-105	1922	-44	-12	-36
6281	-9	-105	1915	-44	-12	-36
6286	-9	-107	1925	-44	-12	-36
6291	-5	-108	1909	-44	-12	-36
6296	-5	-98	1928	-29	22	-43
6301	-14	-101	1910	-29	22	-43
6306	-16	-101	1922	-29	22	-43
6311	-7	-105	1920	-29	22	-43
6316	1	-108	1928	-29	22	-43
6321	-1	-104	1913	-29	22	-43
6326	-5	-98	1925	-103	67	-58
6331	-14	-99	1918	-103	67	-58
6336	-8	-100	1924	-103	67	-58
6341	-1	-111	1919	-103	67	-58
6346	-7	-108	1914	-103	67	-58
6351	-3	-99	1909	-103	67	-58
6356	-2	-95	1922	-103	67	-58
6361	-8	-103	1915	-41	42	-54
6366	-12	-97	1917	-41	42	-54
6371	-6	-112	1927	-41	42	-54
6376	-11	-92	1909	-41	42	-54
6381	2	-101	1931	-41	42	-54
6386	-4	-98	1911	-41	42	-54
6391	-20	-99	1920	-55	19	106
6396	-2	-101	1926	-55	19	106
6401	-10	-101	1919	-55	19	106
6406	-6	-109	1923	-55	19	106
6411	-15	-110	1908	-55	19	106
6416	-9	-97	1921	-55	19	106
6421	-5	-108	1909	0	-26	-10
6426	-9	-112	1923	0	-26	-10
6431	-2	-97	1922	0	-26	-10
6436	-8	-105	1927	0	-26	-10
6441	-5	-108	1907	0	-26	-10
6446	-7	-101	1912	0	-26	-10
6451	-6	-101	1917	-57	24	-18
6456	0	-111	1925	-57	24	-18
6461	-8	-107	1930	-57	24	-18
6466	1	-110	1932	-57	24	-18
6471	-8	-106	1913	-57	24	-18
6476	-20	-97	1918	-57	24	-18
6481	-3	-105	1923	-56	28	-78
6486	-3	-108	1933	-56	28	-78
6491	-18	-106	1919	-56	28	-78
6496	-6	-105	1910	-56	28	-78
6501	-9	-100	1920	-56	28	-78
6506	-11	-105	1913	-56	28	-78
6511	-8	-103	1932	-56	28	-78
6516	-5	-105	1921	-62	29	-29
6521	-10	-101	1920	-62	29	-29
6526	-7	-102	1917	-62	29	-29
6531	-7	-105	1917	-62	29	-29
6536	-6	-107	1914	-62	29	-29
6541	-5	-106	1913	-62	29	-29
6546	1	-104	1913	-65	64	-12
6551	-9	-103	1926	-65	64	-12
6556	-4	-98	1931	-65	64	-12
6561	-4	-106	1930	-65	64	-12
6566	-6	-117	1932	-65	64	-12
6571	-5	-99	1917	-65	64	-12
6576	-10	-109	1917	-6	11	-67
6581	6	-103	1910	-6	11	-67
6586	-7	-107	1914	-6	11	-67
6591	-1	-103	1907	-6	11	-67
6596	-21	-103	1925	-6	11	-67
6601	-15	-106	1921	-6	11	-67
6606	-7	-101	1910	-42	-21	59
6611	-2	-102	1916	-42	-21	59
6616	-7	-97	1926	-42	-21	59
6621	-10	-109	1932	-42	-21	59
6626	-6	-115	1928	-42	-21	59
6631	-7	-104	1919	-42	-21	59
6636	-7	-106	1928	-22	-70	-42
6641	2	-108	1915	-22	-70	-42
6646	-8	-100	1926	-22	-70	-42
6651	-12	-106	1931	-22	-70	-42
6656	-9	-108	1921	-22	-70	-42
6661	-9	-101	1928	-22	-70	-42
6666	-8	-100	1920	-22	-70	-42
6671	-2	-102	1941	11	42	-23
6676	-5	-106	1927	11	42	-23
6681	-1	-101	1935	11	42	-23
6686	-6	-109	1927	11	42	-23
6691	-8	-99	1917	11	42	-23
6696	-6	-110	1915	11	42	-23
6701	-7	-111	1915	-71	37	-105
6706	-11	-96	1933	-71	37	-105
6711	-7	-106	1916	-71	37	-105
6716	-2	-104	1930	-71	37	-105
6721	-15	-98	1930	-71	37	-105
6726	-11	-102	1916	-71	37	-105
6731	-11	-107	1922	-65	52	-52
6736	-9	-103	1926	-65	52	-52
6741	-13	-100	1923	-65	52	-52
6746	-12	-104	1924	-65	52	-52
6751	-10	-106	1908	-65	52	-52
6756	-10	-100	1919	-65	52	-52
6761	-12	-110	1908	-64	29	-30
6766	-13	-100	1918	-64	29	-30
6771	-3	-95	1909	-64	29	-30
6776	-12	-101	1923	-64	29	-30
6781	-4	-105	1915	-64	29	-30
6786	7	-104	1910	-64	29	-30
6791	-9	-108	1928	-39	74	-124
6796	-12	-99	1923	-39	74	-124
6801	-8	-95	1922	-39	74	-124
6806	-2	-109	1907	-39	74	-124
6811	-2	-105	1905	-39	74	-124
6816	-11	-99	1934	-39	74	-124
6821	-7	-107	1922	-39	74	-124
6826	-10	-107	1909	-71	-32	34
6831	-5	-104	1917	-71	-32	34
6836	-8	-105	1924	-71	-32	34
6841	-15	-105	1915	-71	-32	34
6846	-5	-102	1914	-71	-32	34
6851	-7	-102	1915	-71	-32	34
6856	-19	-99	1923	-12	45	11
6861	-4	-105	1922	-12	45	11
6866	0	-107	1915	-12	45	11
6871	-8	-109	1916	-12	45	11
6876	-11	-103	1922	-12	45	11
6881	-19	-102	1908	-12	45	11
6886	-10	-104	1930	-48	-22	-10
6891	-10	-101	1912	-48	-22	-10
6896	-7	-95	1917	-48	-22	-10
6901	-5	-101	1912	-48	-22	-10
6906	2	-102	1929	-48	-22	-10
6911	-10	-96	1917	-48	-22	-10
6916	-9	-100	1920	-73	18	-99
6921	-2	-107	1917	-73	18	-99
6926	-10	-103	1913	-73	18	-99
6931	-4	-111	1916	-73	18	-99
6936	-9	-105	1909	-73	18	-99
6941	-11	-107	1921	-73	18	-99
6946	-11	-103	1911	-62	11	-1
6951	-16	-103	1921	-62	11	-1
6956	-11	-92	1918	-62	11	-1
6961	-7	-102	1913	-62	11	-1
6966	-9	-97	1917	-62	11	-1
6971	-14	-106	1919	-62	11	-1
6976	-5	-99	1917	-62	11	-1
6981	-2	-99	1925	-57	48	29
6986	-12	-100	1916	-57	48	29
6991	-4	-106	1926	-57	48	29
6996	-11	-109	1928	-57	48	29
7001	0	-100	1919	-57	48	29
7006	-5	-98	1924	-57	48	29
7011	-12	-99	1927	-32	45	-102
7016	-13	-104	1920	-32	45	-102
7021	-5	-109	1925	-32	45	-102
7026	-17	-98	1921	-32	45	-102
7031	1	-94	1923	-32	45	-102
7036	0	-106	1924	-32	45	-102
7041	0	-111	1937	-61	-2	-20
7046	-11	-101	1912	-61	-2	-20
7051	-16	-98	1908	-61	-2	-20
7056	-14	-103	1920	-61	-2	-20
7061	-11	-108	1918	-61	-2	-20
7066	-9	-109	1911	-61	-2	-20
7071	-4	-102	1924	-6	-31	53
7076	-8	-107	1921	-6	-31	53
7081	-9	-111	1920	-6	-31	53
7086	-19	-103	1920	-6	-31	53
7091	-6	-108	1926	-6	-31	53
7096	-7	-97	1912	-6	-31	53
7101	-2	-106	1922	-70	17	-26
7106	-15	-108	1919	-70	17	-26
7111	4	-108	1925	-70	17	-26
7116	-17	-106	1923	-70	17	-26
7121	-4	-105	1930	-70	17	-26
7126	-8	-106	1911	-70	17	-26
7131	-12	-104	1910	-70	17	-26
7136	-15	-99	1909	-48	-9	-5
7141	-8	-105	1916	-48	-9	-5
7146	-13	-101	1915	-48	-9	-5
7151	-13	-106	1924	-48	-9	-5
7156	-6	-98	1916	-48	-9	-5
7161	-5	-98	1924	-48	-9	-5
7166	-10	-103	1921	-60	51	-102
7171	-10	-107	1921	-60	51	-102
7176	-10	-96	1935	-60	51	-102
7181	-4	-103	1923	-60	51	-102
7186	-3	-108	1922	-60	51	-102
7191	-8	-102	1908	-60	51	-102
7196	-16	-105	1923	-51	19	7
7201	-16	-102	1913	-51	19	7
7206	-15	-102	1927	-51	19	7
7211	-2	-106	1930	-51	19	7
7216	-10	-94	1925	-51	19	7
7221	-7	-104	1912	-51	19	7
7226	-12	-99	1921	-44	9	-131
7231	-6	-103	1913	-44	9	-131
7236	-8	-104	1931	-44	9	-131
7241	-12	-102	1916	-44	9	-131
7246	-9	-108	1914	-44	9	-131
7251	-9	-103	1929	-44	9	-131
7256	-6	-103	1920	-28	-6	-17
7261	-15	-109	1909	-28	-6	-17
7266	-9	-103	1916	-28	-6	-17
7271	-6	-101	1911	-28	-6	-17
7276	-6	-101	1930	-28	-6	-17
7281	-5	-95	1916	-28	-6	-17
7286	-16	-107	1918	-28	-6	-17
7291	-4	-103	1920	-25	-69	21
7296	-2	-107	1911	-25	-69	21
7301	-9	-112	1911	-25	-69	21
7306	-1	-106	1906	-25	-69	21
7311	-9	-106	1914	-25	-69	21
7316	-7	-98	1923	-25	-69	21
7321	-5	-111	1918	-39	22	30
7326	-16	-104	1924	-39	22	30
7331	-7	-107	1899	-39	22	30
7336	-5	-99	1916	-39	22	30
7341	-6	-104	1913	-39	22	30
7346	-8	-104	1936	-39	22	30
7351	-8	-104	1924	-48	-7	-2
7356	-5	-99	1920	-48	-7	-2
7361	-14	-99	1922	-48	-7	-2
7366	-16	-100	1903	-48	-7	-2
7371	-3	-102	1927	-48	-7	-2
7376	-3	-107	1916	-48	-7	-2
7381	-10	-99	1927	-64	32	-95
7386	-6	-99	1931	-64	32	-95
7391	-6	-106	1927	-64	32	-95
7396	-7	-100	1909	-64	32	-95
7401	-6	-103	1927	-64	32	-95
7406	-9	-102	1916	-64	32	-95
7411	-9	-106	1911	-100	58	-81
7416	-11	-98	1919	-100	58	-81
7421	-3	-104	1929	-100	58	-81
7426	-17	-101	1915	-100	58	-81
7431	-9	-101	1924	-100	58	-81
7436	-12	-102	1926	-100	58	-81
7441	3	-109	1906	-100	58	-81
7446	-2	-102	1924	-71	-39	-106
7451	-12	-95	1928	-71	-39	-106
7456	-14	-103	1926	-71	-39	-106
7461	-11	-103	1924	-71	-39	-106
7466	-13	-105	1916	-71	-39	-106
7471	-1	-103	1915	-71	-39	-106
7476	-21	-99	1922	-48	72	131
7481	-17	-107	1908	-48	72	131
7486	-13	-103	1911	-48	72	131
7491	-5	-107	1917	-48	72	131
7496	-8	-106	1924	-48	72	131
7501	-1	-99	1937	-48	72	131
7506	-8	-107	1930	-55	5	-5
7511	-9	-102	1913	-55	5	-5
7516	-10	-104	1925	-55	5	-5
7521	-7	-96	1911	-55	5	-5
7526	-3	-112	1927	-55	5	-5
7531	-2	-107	1925	-55	5	-5
7536	-4	-107	1929	-77	77	-36
7541	-7	-98	1917	-77	77	-36
7546	-6	-107	1932	-77	77	-36
7551	-8	-107	1921	-77	77	-36
7556	-12	-99	1927	-77	77	-36
7561	-14	-104	1914	-77	77	-36
7566	-12	-102	1922	-45	58	-26
7571	-10	-97	1922	-45	58	-26
7576	-8	-109	1906	-45	58	-26
7581	-7	-98	1932	-45	58	-26
7586	-6	-110	1924	-45	58	-26
7591	-22	-108	1921	-45	58	-26
7596	-9	-103	1920	-45	58	-26
7601	-16	-101	1920	-65	2	9
7606	-11	-112	1921	-65	2	9
7611	-14	-100	1930	-65	2	9
7616	-3	-100	1923	-65	2	9
7621	-3	-103	1919	-65	2	9
7626	-10	-98	1918	-65	2	9
7631	-17	-100	1916	-34	-2	116
7636	-12	-100	1926	-34	-2	116
7641	-11	-101	1931	-34	-2	116
7646	-17	-104	1921	-34	-2	116
7651	-7	-103	1921	-34	-2	116
7656	-5	-107	1917	-34	-2	116
7661	-11	-108	1919	-9	28	-83
7666	-9	-97	1913	-9	28	-83
7671	-11	-104	1911	-9	28	-83
7676	-1	-105	1914	-9	28	-83
7681	-7	-102	1911	-9	28	-83
7686	-10	-109	1908	-9	28	-83
7691	-9	-110	1923	-15	27	71
7696	1	-110	1932	-15	27	71
7701	-12	-107	1924	-15	27	71
7706	-13	-103	1914	-15	27	71
7711	-6	-107	1908	-15	27	71
7716	-6	-105	1925	-15	27	71
7721	-16	-110	1911	-28	-29	-23
7726	-12	-110	1919	-28	-29	-23
7731	-4	-103	1925	-28	-29	-23
7736	-12	-107	1911	-28	-29	-23
7741	-7	-107	1912	-28	-29	-23
7746	-4	-105	1908	-28	-29	-23
7751	-14	-99	1914	-28	-29	-23
7756	-19	-113	1911	-35	18	-30
7761	-6	-112	1928	-35	18	-30
7766	-11	-100	1928	-35	18	-30
7771	-9	-99	1920	-35	18	-30
7776	-1	-106	1920	-35	18	-30
7781	-9	-105	1917	-35	18	-30
7786	-6	-105	1919	-36	31	-29
7791	-5	-103	1915	-36	31	-29
7796	-10	-98	1912	-36	31	-29
7801	-3	-104	1924	-36	31	-29
7806	-8	-102	1919	-36	31	-29
7811	-13	-103	1925	-36	31	-29
7816	-6	-98	1908	-55	40	15
7821	-11	-100	1914	-55	40	15
7826	-5	-101	1921	-55	40	15
7831	0	-103	1916	-55	40	15
7836	-16	-106	1912	-55	40	15
7841	-1	-102	1920	-55	40	15
7846	-7	-105	1923	-71	28	-34
7851	-1	-105	1922	-71	28	-34
7856	-10	-103	1926	-71	28	-34
7861	-3	-104	1915	-71	28	-34
7866	-14	-101	1937	-71	28	-34
7871	-16	-108	1915	-71	28	-34
7876	-8	-104	1912	-31	11	-90
7881	-5	-109	1922	-31	11	-90
7886	-11	-107	1915	-31	11	-90
7891	-12	-108	1906	-31	11	-90
7896	-4	-101	1909	-31	11	-90
7901	-3	-103	1909	-31	11	-90
7906	-1	-101	1915	-31	11	-90
7911	-10	-104	1916	-44	8	33
7916	-1	-101	1928	-44	8	33
7921	-16	-98	1910	-44	8	33
7926	-10	-111	1912	-44	8	33
7931	-5	-93	1928	-44	8	33
7936	-3	-104	1914	-44	8	33
7941	-7	-101	1919	-26	-60	26
7946	-2	-102	1921	-26	-60	26
7951	-19	-101	1913	-26	-60	26
7956	-13	-103	1919	-26	-60	26
7961	-9	-111	1930	-26	-60	26
7966	-3	-97	1916	-26	-60	26
7971	-7	-105	1917	-34	48	-18
7976	-10	-99	1922	-34	48	-18
7981	-13	-93	1912	-34	48	-18
7986	3	-103	1922	-34	48	-18
7991	-5	-103	1926	-34	48	-18
7996	-12	-103	1920	-34	48	-18
8001	-1	-101	1909	-63	8	-2
8006	-9	-99	1913	-63	8	-2
8011	-5	-96	1919	-63	8	-2
8016	-10	-102	1934	-63	8	-2
8021	-5	-95	1917	-63	8	-2
8026	-10	-101	1928	-63	8	-2
8031	-9	-95	1913	-62	-5	-11
8036	-16	-108	1903	-62	-5	-11
8041	-9	-91	1909	-62	-5	-11
8046	-14	-107	1914	-62	-5	-11
8051	-5	-109	1918	-62	-5	-11
8056	-8	-93	1909	-62	-5	-11
8061	-2	-104	1918	-62	-5	-11
8066	-14	-94	1903	-57	82	-5
8071	-1	-98	1908	-57	82	-5
8076	-8	-107	1924	-57	82	-5
8081	-4	-99	1922	-57	82	-5
8086	-7	-109	1915	-57	82	-5
8091	-17	-109	1923	-57	82	-5
8096	-10	-113	1918	-35	-23	-40
8101	-17	-104	1918	-35	-23	-40
8106	-4	-100	1921	-35	-23	-40
8111	1	-91	1929	-35	-23	-40
8116	-7	-100	1918	-35	-23	-40
8121	-5	-103	1915	-35	-23	-40
8126	-13	-106	1919	-36	-22	5
8131	-11	-101	1916	-36	-22	5
8136	-7	-103	1930	-36	-22	5
8141	-3	-103	1925	-36	-22	5
8146	-13	-100	1916	-36	-22	5
8151	-14	-105	1921	-36	-22	5
8156	-12	-106	1926	-16	-16	50
8161	-10	-107	1941	-16	-16	50
8166	-12	-111	1923	-16	-16	50
8171	-7	-105	1918	-16	-16	50
8176	-10	-104	1922	-16	-16	50
8181	-6	-98	1916	-16	-16	50
8186	-3	-112	1926	-20	15	-23
8191	-2	-100	1915	-20	15	-23
8196	-12	-106	1928	-20	15	-23
8201	-3	-98	1923	-20	15	-23
8206	-4	-111	1906	-20	15	-23
8211	-5	-103	1928	-20	15	-23
8216	-4	-107	1913	-20	15	-23
8221	-11	-97	1919	-74	51	-10
8226	-9	-101	1913	-74	51	-10
8231	-16	-93	1922	-74	51	-10
8236	-16	-104	1922	-74	51	-10
8241	-1	-94	1913	-74	51	-10
8246	-3	-101	1920	-74	51	-10
8251	-4	-103	1925	-80	22	-48
8256	-8	-105	1919	-80	22	-48
8261	-7	-100	1902	-80	22	-48
8266	-16	-105	1908	-80	22	-48
8271	-11	-112	1912	-80	22	-48
8276	-14	-111	1915	-80	22	-48
8281	-4	-107	1922	-2	-9	48
8286	-2	-108	1913	-2	-9	48
8291	-15	-107	1922	-2	-9	48
8296	-5	-102	1915	-2	-9	48
8301	-10	-104	1907	-2	-9	48
8306	-9	-108	1914	-2	-9	48
8311	-8	-106	1914	-73	-3	-136
8316	-4	-105	1921	-73	-3	-136
8321	3	-101	1908	-73	-3	-136
8326	-10	-101	1908	-73	-3	-136
8331	-8	-102	1923	-73	-3	-136
8336	-14	-109	1916	-73	-3	-136
8341	-2	-103	1927	-74	42	-58
8346	-16	-101	1909	-74	42	-58
8351	-15	-99	1905	-74	42	-58
8356	-10	-112	1921	-74	42	-58
8361	-6	-102	1921	-74	42	-58
8366	-7	-106	1924	-74	42	-58
8371	1	-99	1932	-74	42	-58
8376	-5	-102	1916	-39	-16	108
8381	-8	-105	1920	-39	-16	108
8386	-8	-108	1920	-39	-16	108
8391	-14	-108	1920	-39	-16	108
8396	-4	-102	1925	-39	-16	108
8401	-1	-108	1926	-39	-16	108
8406	-6	-94	1918	-23	35	-48
8411	-12	-105	1899	-23	35	-48
8416	-10	-108	1914	-23	35	-48
8421	-7	-96	1913	-23	35	-48
8426	-10	-97	1913	-23	35	-48
8431	-11	-103	1918	-23	35	-48
8436	-11	-100	1925	-35	5	11
8441	-5	-102	1929	-35	5	11
8446	-14	-98	1922	-35	5	11
8451	-7	-106	1922	-35	5	11
8456	-11	-104	1920	-35	5	11
8461	-10	-103	1915	-35	5	11
8466	-3	-99	1921	-49	61	-82
8471	-6	-98	1928	-49	61	-82
8476	1	-101	1918	-49	61	-82
8481	-14	-111	1915	-49	61	-82
8486	-11	-112	1913	-49	61	-82
8491	-8	-103	1921	-49	61	-82
8496	-8	-100	1919	11	-3	39
8501	-11	-108	1914	11	-3	39
8506	-13	-102	1909	11	-3	39
8511	-7	-103	1928	11	-3	39
8516	-14	-102	1937	11	-3	39
8521	-12	-106	1924	11	-3	39
8526	-14	-106	1910	11	-3	39
8531	-5	-111	1928	-68	-38	-128
8536	3	-112	1917	-68	-38	-128
8541	-3	-101	1923	-68	-38	-128
8546	-6	-100	1907	-68	-38	-128
8551	-14	-107	1923	-68	-38	-128
8556	-9	-109	1913	-68	-38	-128
8561	-16	-105	1917	-34	4	103
8566	-9	-107	1930	-34	4	103
8571	-12	-105	1930	-34	4	103
8576	-6	-96	1920	-34	4	103
8581	-9	-104	1919	-34	4	103
8586	-13	-110	1910	-34	4	103
8591	-1	-105	1923	33	25	1
8596	-4	-108	1928	33	25	1
8601	-3	-115	1921	33	25	1
8606	-8	-109	1912	33	25	1
8611	-14	-105	1929	33	25	1
8616	-13	-103	1910	33	25	1
8621	-15	-109	1916	-42	-3	-32
8626	1	-100	1906	-42	-3	-32
8631	-1	-101	1910	-42	-3	-32
8636	-10	-109	1914	-42	-3	-32
8641	-14	-101	1916	-42	-3	-32
8646	-19	-106	1918	-42	-3	-32
8651	-11	-101	1920	-48	-22	40
8656	-12	-105	1913	-48	-22	40
8661	-5	-102	1928	-48	-22	40
8666	-5	-104	1925	-48	-22	40
8671	-3	-95	1921	-48	-22	40
8676	-12	-104	1917	-48	-22	40
8681	0	-107	1916	-48	-22	40
8686	-3	-95	1927	-57	47	15
8691	-12	-95	1918	-57	47	15
8696	-7	-104	1920	-57	47	15
8701	-2	-111	1923	-57	47	15
8706	-6	-98	1920	-57	47	15
8711	-2	-101	1935	-57	47	15
8716	-8	-101	1928	-31	2	86
8721	-6	-101	1922	-31	2	86
8726	-1	-99	1930	-31	2	86
8731	-7	-112	1902	-31	2	86
8736	-10	-109	1933	-31	2	86
8741	-12	-102	1920	-31	2	86
8746	-12	-103	1917	4	54	-86
8751	-5	-96	1918	4	54	-86
8756	-6	-106	1932	4	54	-86
8761	-13	-101	1924	4	54	-86
8766	-7	-101	1919	4	54	-86
8771	-6	-103	1936	4	54	-86
8776	-3	-109	1912	-35	17	86
8781	-12	-92	1916	-35	17	86
8786	-11	-102	1915	-35	17	86
8791	-9	-98	1919	-35	17	86
8796	-2	-105	1919	-35	17	86
8801	-10	-105	1922	-35	17	86
8806	-11	-102	1917	-26	-21	-34
8811	-7	-105	1913	-26	-21	-34
8816	-9	-99	1917	-26	-21	-34
8821	-15	-108	1923	-26	-21	-34
8826	-9	-104	1924	-26	-21	-34
8831	-7	-101	1918	-26	-21	-34
8836	-4	-101	1916	-26	-21	-34
8841	-8	-103	1901	-67	-22	-49
8846	-11	-100	1929	-67	-22	-49
8851	-16	-108	1918	-67	-22	-49
8856	-4	-103	1923	-67	-22	-49
8861	-9	-108	1926	-67	-22	-49
8866	-4	-105	1903	-67	-22	-49
8871	-6	-106	1912	-51	30	-45
8876	-9	-109	1918	-51	30	-45
8881	-10	-105	1919	-51	30	-45
8886	-13	-100	1923	-51	30	-45
8891	-13	-106	1917	-51	30	-45
8896	-7	-105	1929	-51	30	-45
8901	-12	-109	1929	-65	47	-26
8906	-9	-97	1918	-65	47	-26
8911	1	-101	1924	-65	47	-26
8916	-8	-107	1928	-65	47	-26
8921	-2	-100	1921	-65	47	-26
8926	-2	-100	1915	-65	47	-26
8931	-10	-101	1932	-39	18	75
8936	-11	-103	1925	-39	18	75
8941	-9	-113	1914	-39	18	75
8946	-3	-100	1919	-39	18	75
8951	-4	-93	1906	-39	18	75
8956	-6	-101	1923	-39	18	75
8961	-10	-102	1909	13	-16	43
8966	-14	-104	1929	13	-16	43
8971	-7	-106	1925	13	-16	43
8976	-6	-106	1916	13	-16	43
8981	-9	-104	1919	13	-16	43
8986	-6	-100	1914	13	-16	43
8991	-14	-105	1924	13	-16	43
8996	-7	-103	1910	-29	-12	55
9001	-8	-104	1924	-29	-12	55
9006	-4	-103	1919	-29	-12	55
9011	-10	-99	1908	-29	-12	55
9016	-10	-118	1909	-29	-12	55
9021	-12	-102	1915	-29	-12	55
9026	4	-106	1929	-13	-29	-48
9031	-13	-105	1937	-13	-29	-48
9036	-9	-101	1931	-13	-29	-48
9041	-8	-101	1910	-13	-29	-48
9046	-7	-104	1913	-13	-29	-48
9051	-9	-97	1919	-13	-29	-48
9056	-6	-101	1921	-41	-9	-7
9061	-7	-99	1928	-41	-9	-7
9066	-6	-105	1922	-41	-9	-7
9071	3	-101	1927	-41	-9	-7
9076	-15	-106	1916	-41	-9	-7
9081	-10	-100	1920	-41	-9	-7
9086	-10	-104	1915	-51	24	-14
9091	-6	-99	1916	-51	24	-14
9096	-6	-101	1915	-51	24	-14
9101	0	-96	1925	-51	24	-14
9106	-1	-104	1927	-51	24	-14
9111	-16	-99	1913	-51	24	-14
9116	-12	-103	1944	-96	57	-40
9121	-4	-98	1921	-96	57	-40
9126	-20	-101	1925	-96	57	-40
9131	-13	-99	1916	-96	57	-40
9136	-8	-99	1918	-96	57	-40
9141	-10	-104	1917	-96	57	-40
9146	-5	-100	1912	-96	57	-40
9151	-4	-102	1906	-57	68	-59
9156	-6	-94	1923	-57	68	-59
9161	-8	-104	1920	-57	68	-59
9166	-6	-105	1930	-57	68	-59
9171	-5	-101	1921	-57	68	-59
9176	-5	-104	1924	-57	68	-59
9181	-10	-97	1919	-6	-15	-26
9186	-4	-101	1914	-6	-15	-26
9191	-9	-107	1926	-6	-15	-26
9196	-12	-105	1919	-6	-15	-26
9201	-1	-100	1920	-6	-15	-26
9206	-4	-104	1923	-6	-15	-26
9211	0	-99	1909	-28	3	27
9216	-5	-105	1909	-28	3	27
9221	-15	-104	1926	-28	3	27
9226	-14	-100	1930	-28	3	27
9231	-7	-102	1909	-28	3	27
9236	-1	-105	1926	-28	3	27
9241	-3	-95	1928	1	-23	20
9246	-3	-106	1928	1	-23	20
9251	-6	-101	1926	1	-23	20
9256	-13	-110	1914	1	-23	20
9261	-5	-103	1912	1	-23	20
9266	-6	-102	1929	1	-23	20
9271	-10	-100	1925	-13	14	84
9276	-4	-106	1910	-13	14	84
9281	-7	-99	1925	-13	14	84
9286	-8	-105	1927	-13	14	84
9291	-2	-103	1925	-13	14	84
9296	-14	-102	1917	-13	14	84
9301	-7	-96	1918	-13	14	84
9306	-12	-105	1937	-51	24	-48
9311	-3	-102	1924	-51	24	-48
9316	-16	-102	1918	-51	24	-48
9321	-11	-104	1914	-51	24	-48
9326	-3	-105	1927	-51	24	-48
9331	-2	-101	1922	-51	24	-48
9336	-7	-106	1912	-61	18	-68
9341	-11	-112	1912	-61	18	-68
9346	-1	-112	1931	-61	18	-68
9351	-12	-94	1912	-61	18	-68
9356	-4	-107	1918	-61	18	-68
9361	-15	-104	1916	-61	18	-68
9366	-14	-94	1915	-80	62	14
9371	-6	-108	1920	-80	62	14
9376	-2	-105	1922	-80	62	14
9381	-7	-98	1923	-80	62	14
9386	-3	-109	1915	-80	62	14
9391	-7	-100	1916	-80	62	14
9396	-4	-98	1932	-66	-12	-93
9401	-10	-100	1911	-66	-12	-93
9406	-3	-101	1938	-66	-12	-93
9411	-9	-107	1924	-66	-12	-93
9416	-10	-96	1913	-66	-12	-93
9421	-5	-99	1930	-66	-12	-93
9426	-8	-100	1924	-38	-3	-12
9431	-7	-101	1921	-38	-3	-12
9436	-3	-107	1930	-38	-3	-12
9441	-2	-105	1925	-38	-3	-12
9446	-9	-100	1929	-38	-3	-12
9451	-13	-102	1910	-38	-3	-12
9456	-6	-108	1921	-38	-3	-12
9461	-5	-98	1924	-54	-56	23
9466	-4	-108	1923	-54	-56	23
9471	-9	-98	1923	-54	-56	23
9476	-15	-103	1919	-54	-56	23
9481	-1	-111	1918	-54	-56	23
9486	-8	-96	1923	-54	-56	23
9491	-6	-103	1921	-19	25	-26
9496	-4	-103	1918	-19	25	-26
9501	-10	-109	1923	-19	25	-26
9506	-10	-102	1914	-19	25	-26
9511	-9	-104	1921	-19	25	-26
9516	-13	-108	1916	-19	25	-26
9521	-9	-96	1923	-91	37	-5
9526	-2	-102	1931	-91	37	-5
9531	-19	-105	1926	-91	37	-5
9536	-7	-100	1918	-91	37	-5
9541	-6	-105	1908	-91	37	-5
9546	-7	-105	1921	-91	37	-5
9551	-8	-102	1926	-23	25	-134
9556	-8	-99	1928	-23	25	-134
9561	-11	-105	1910	-23	25	-134
9566	-11	-100	1919	-23	25	-134
9571	-10	-101	1930	-23	25	-134
9576	-12	-107	1922	-23	25	-134
9581	-15	-105	1928	-40	42	45
9586	-2	-104	1913	-40	42	45
9591	-10	-110	1907	-40	42	45
9596	-11	-100	1909	-40	42	45
9601	-7	-99	1917	-40	42	45
9606	-12	-106	1917	-40	42	45
9611	-3	-100	1928	-40	42	45
9616	-2	-103	1920	-67	17	-97
9621	-10	-106	1905	-67	17	-97
9626	0	-109	1914	-67	17	-97
9631	-6	-100	1926	-67	17	-97
9636	-2	-104	1939	-67	17	-97
9641	-4	-105	1921	-67	17	-97
9646	-10	-108	1929	-41	-21	-7
9651	-11	-108	1918	-41	-21	-7
9656	-7	-99	1926	-41	-21	-7
9661	-6	-97	1914	-41	-21	-7
9666	-8	-105	1925	-41	-21	-7
9671	-5	-102	1918	-41	-21	-7
9676	-10	-95	1911	-25	7	37
9681	-13	-102	1912	-25	7	37
9686	-11	-107	1926	-25	7	37
9691	-3	-105	1926	-25	7	37
9696	-6	-96	1932	-25	7	37
9701	-7	-98	1908	-25	7	37
9706	-9	-99	1913	-48	11	-24
9711	-9	-104	1923	-48	11	-24
9716	-11	-104	1930	-48	11	-24
9721	-10	-101	1924	-48	11	-24
9726	-4	-106	1914	-48	11	-24
9731	-6	-103	1925	-48	11	-24
9736	-14	-101	1911	-65	109	29
9741	-5	-93	1927	-65	109	29
9746	-6	-104	1920	-65	109	29
9751	-6	-105	1920	-65	109	29
9756	-10	-102	1930	-65	109	29
9761	-2	-97	1911	-65	109	29
9766	-15	-107	1922	-65	109	29
9771	-5	-109	1914	-41	51	-61
9776	-5	-103	1915	-41	51	-61
9781	-7	-114	1915	-41	51	-61
9786	-4	-102	1931	-41	51	-61
9791	-12	-88	1909	-41	51	-61
9796	-10	-102	1922	-41	51	-61
9801	-13	-105	1924	-47	1	86
9806	-13	-105	1916	-47	1	86
9811	11	-107	1907	-47	1	86
9816	-10	-101	1920	-47	1	86
9821	-12	-96	1936	-47	1	86
9826	-12	-96	1906	-47	1	86
9831	-5	-109	1912	-52	-10	-120
9836	-17	-102	1926	-52	-10	-120
9841	4	-97	1916	-52	-10	-120
9846	-9	-99	1925	-52	-10	-120
9851	-5	-102	1902	-52	-10	-120
9856	-10	-102	1911	-52	-10	-120
9861	-3	-105	1918	-60	-13	68
9866	-11	-105	1922	-60	-13	68
9871	-4	-103	1920	-60	-13	68
9876	-3	-107	1913	-60	-13	68
9881	-4	-104	1924	-60	-13	68
9886	-11	-101	1920	-60	-13	68
9891	-10	-107	1927	-20	-42	5
9896	-10	-108	1925	-20	-42	5
9901	-1	-111	1916	-20	-42	5
9906	-6	-98	1916	-20	-42	5
9911	-14	-95	1927	-20	-42	5
9916	-6	-102	1920	-20	-42	5
9921	-18	-95	1927	-20	-42	5
9926	-7	-99	1920	-19	24	-14
9931	-3	-99	1915	-19	24	-14
9936	-5	-103	1912	-19	24	-14
9941	-14	-103	1920	-19	24	-14
9946	-8	-111	1927	-19	24	-14
9951	-10	-101	1919	-19	24	-14
9956	-8	-96	1916	-34	2	-1
9961	-8	-102	1927	-34	2	-1
9966	-9	-102	1920	-34	2	-1
9971	-11	-100	1922	-34	2	-1
9976	-12	-109	1914	-34	2	-1
9981	-9	-98	1919	-34	2	-1
9986	-9	-102	1921	-74	-12	-32
9991	-5	-103	1923	-74	-12	-32
9996	-16	-101	1930	-74	-12	-32
10001	-9	-100	1917	-74	-12	-32
10006	-9	-104	1921	-74	-12	-32
10011	-11	-99	1918	-74	-12	-32
10016	-3	-102	1909	-38	8	108
10021	-12	-104	1916	-38	8	108
10026	-6	-97	1909	-38	8	108
10031	-8	-101	1913	-38	8	108
10036	-16	-106	1922	-38	8	108
10041	-9	-99	1922	-38	8	108
10046	-6	-102	1916	-28	-8	45
10051	-15	-101	1914	-28	-8	45
10056	-12	-98	1920	-28	-8	45
10061	-5	-101	1932	-28	-8	45
10066	-4	-107	1916	-28	-8	45
10071	-7	-96	1912	-28	-8	45
10076	-11	-100	1915	-28	-8	45
10081	-16	-91	1921	-28	29	124
10086	-6	-100	1914	-28	29	124
10091	-14	-102	1913	-28	29	124
10096	-3	-101	1922	-28	29	124
10101	1	-105	1917	-28	29	124
10106	-7	-99	1914	-28	29	124
10111	-8	-96	1922	-17	-12	29
10116	-8	-98	1912	-17	-12	29
10121	-15	-103	1911	-17	-12	29
10126	-7	-99	1921	-17	-12	29
10131	-4	-93	1926	-17	-12	29
10136	5	-102	1926	-17	-12	29
10141	-16	-93	1923	-57	-3	-39
10146	-9	-97	1915	-57	-3	-39
10151	-9	-111	1926	-57	-3	-39
10156	-3	-106	1929	-57	-3	-39
10161	-5	-104	1924	-57	-3	-39
10166	-4	-108	1924	-57	-3	-39
10171	3	-108	1928	-67	14	-52
10176	-6	-104	1923	-67	14	-52
10181	-9	-103	1915	-67	14	-52
10186	-12	-100	1935	-67	14	-52
10191	-6	-100	1913	-67	14	-52
10196	-12	-104	1920	-67	14	-52
10201	-11	-106	1926	-74	-6	-109
10206	3	-109	1926	-74	-6	-109
10211	-13	-104	1922	-74	-6	-109
10216	-19	-98	1918	-74	-6	-109
10221	-12	-104	1922	-74	-6	-109
10226	-6	-98	1921	-74	-6	-109
10231	-7	-107	1904	-74	-6	-109
10236	-9	-103	1923	-36	8	77
10241	-2	-101	1918	-36	8	77
10246	-8	-108	1905	-36	8	77
10251	-2	-95	1922	-36	8	77
10256	-3	-94	1904	-36	8	77
10261	-2	-107	1921	-36	8	77
10266	-2	-103	1938	-23	21	-56
10271	-6	-106	1921	-23	21	-56
10276	-1	-104	1918	-23	21	-56
10281	-10	-103	1921	-23	21	-56
10286	-13	-92	1920	-23	21	-56
10291	-4	-108	1898	-23	21	-56
10296	-11	-103	1910	-14	-8	64
10301	-7	-105	1915	-14	-8	64
10306	-6	-104	1916	-14	-8	64
10311	-10	-103	1908	-14	-8	64
10316	-9	-103	1917	-14	-8	64
10321	-19	-107	1917	-14	-8	64
10326	-10	-101	1922	-36	-28	23
10331	2	-105	1917	-36	-28	23
10336	-12	-105	1920	-36	-28	23
10341	-8	-101	1924	-36	-28	23
10346	-3	-105	1906	-36	-28	23
10351	-6	-108	1922	-36	-28	23
10356	-1	-108	1914	-54	34	94
10361	-8	-101	1913	-54	34	94
10366	-7	-107	1916	-54	34	94
10371	-13	-106	1915	-54	34	94
10376	-3	-105	1910	-54	34	94
10381	-7	-101	1925	-54	34	94
10386	-12	-107	1927	-54	34	94