time	accelerometer_x	accelerometer_y	accelerometer_z	gyroscope_x	gyroscope_y	gyroscope_z	
1	-40	-83	1904	410	9	-27
6	-28	-35	1914	-469	4	-2
11	-20	-20	1971	-469	4	-2
16	-55	6	1828	-469	4	-2
21	-21	-15	2013	-469	4	-2
26	-58	10	1814	-469	4	-2
31	-14	-56	1992	-469	4	-2
36	-29	-91	1954	-213	86	-2
41	-68	-96	1794	-213	86	-2
46	-1	-122	2048	-213	86	-2
51	-35	-115	1893	-213	86	-2
56	-51	-117	1820	-213	86	-2
61	0	-163	1991	-213	86	-2
66	-46	-156	1855	352	12	-13
71	-20	-172	1943	352	12	-13
76	-26	-167	1922	352	12	-13
81	-44	-147	1878	352	12	-13
86	-17	-126	1946	352	12	-13
91	-34	-114	1899	352	12	-13
108	-12	-82	1971	352	12	-13
111	-17	-50	1963	-104	-36	17
116	-48	-4	1811	-104	-36	17
121	-14	-7	1982	-104	-36	17
126	-41	-3	1895	-338	-8	-29
131	-37	-10	1893	-338	-8	-29
136	-37	-55	1914	-338	-8	-29
141	1	-87	1992	-338	-8	-29
146	-37	-99	1879	-338	-8	-29
151	-38	-105	1872	-338	-8	-29
156	-15	-117	1963	-338	-8	-29
161	-30	-119	1899	100	38	-99
166	-33	-140	1897	100	38	-99
171	-25	-154	1946	100	38	-99
176	-42	-163	1890	100	38	-99
181	-25	-157	1920	100	38	-99
186	-19	-154	1938	100	38	-99
191	-33	-122	1910	274	49	49
196	-33	-119	1900	274	49	49
201	-30	-114	1929	274	49	49
206	-36	-106	1909	274	49	49
211	-32	-101	1905	274	49	49
216	-28	-87	1949	274	49	49
221	-23	-48	1956	-372	26	-115
226	-44	-23	1823	-372	26	-115
231	-15	-13	1959	-372	26	-115
236	-29	-21	1917	-372	26	-115
241	-44	-38	1887	-372	26	-115
246	-40	-71	1878	-372	26	-115
251	-28	-94	1933	-165	-21	104
256	-7	-110	2009	-165	-21	104
261	-40	-101	1829	-165	-21	104
266	-38	-108	1870	-165	-21	104
271	-13	-120	1984	-165	-21	104
276	-41	-116	1875	-165	-21	104
281	-40	-137	1899	156	-42	-45
286	-24	-140	1942	156	-42	-45
291	-36	-146	1883	156	-42	-45
296	-36	-140	1902	156	-42	-45
301	-22	-132	1948	156	-42	-45
306	-33	-118	1894	156	-42	-45
311	-24	-110	1916	156	-42	-45
316	-22	-110	1933	134	-32	39
321	-29	-104	1901	134	-32	39
326	-37	-104	1904	134	-32	39
331	-28	-92	1926	134	-32	39
336	-21	-58	1942	134	-32	39
341	-43	-47	1873	134	-32	39
346	-9	-31	1963	-241	15	22
351	-40	-8	1829	-241	15	22
356	-10	-43	1987	-241	15	22
361	-51	-57	1856	-241	15	22
366	7	-77	2039	-241	15	22
371	-50	-86	1850	-241	15	22
376	-38	-104	1855	-43	-6	-10
381	-7	-108	1999	-43	-6	-10
386	-43	-101	1875	-43	-6	-10
391	-37	-113	1860	-43	-6	-10
396	-18	-122	1964	-43	-6	-10
401	-20	-118	1930	-43	-6	-10
406	-39	-112	1874	75	-69	66
411	-25	-126	1950	75	-69	66
416	-28	-125	1924	75	-69	66
421	-39	-111	1885	75	-69	66
426	-22	-115	1930	75	-69	66
431	-31	-115	1929	75	-69	66
436	-36	-106	1883	123	-39	-27
441	-29	-113	1910	123	-39	-27
446	-25	-109	1919	123	-39	-27
451	-35	-109	1914	123	-39	-27
456	-37	-94	1916	123	-39	-27
461	-19	-99	1928	123	-39	-27
466	-26	-67	1918	123	-39	-27
471	-27	-65	1926	-264	35	25
476	-40	-41	1898	-264	35	25
481	-32	-38	1932	-264	35	25
486	-29	-38	1920	-264	35	25
491	-36	-58	1887	-264	35	25
496	-35	-60	1912	-264	35	25
501	-44	-88	1845	-104	19	-102
506	-19	-108	1985	-104	19	-102
511	-29	-102	1933	-104	19	-102
516	-42	-94	1857	-104	19	-102
521	-19	-109	1958	-104	19	-102
526	-32	-115	1935	-104	19	-102
531	-34	-117	1883	51	12	84
536	-27	-102	1925	51	12	84
541	-25	-114	1934	51	12	84
546	-36	-108	1907	51	12	84
551	-35	-119	1891	51	12	84
556	-24	-109	1928	51	12	84
561	-35	-107	1914	12	35	-142
566	-39	-103	1889	12	35	-142
571	-19	-99	1920	12	35	-142
576	-22	-96	1952	12	35	-142
581	-27	-66	1929	12	35	-142
586	-30	-64	1901	12	35	-142
591	-39	-52	1907	-154	24	9
596	-30	-52	1890	-154	24	9
601	-27	-59	1935	-154	24	9
606	-38	-65	1893	-154	24	9
611	-23	-70	1936	-154	24	9
616	-41	-97	1876	-154	24	9
621	-34	-94	1923	-154	24	9
626	-20	-109	1952	-20	4	58
631	-34	-103	1896	-20	4	58
636	-36	-94	1890	-20	4	58
641	-22	-107	1940	-20	4	58
646	-28	-106	1916	-20	4	58
651	-40	-101	1911	-20	4	58
656	-24	-105	1921	87	42	44
661	-26	-98	1911	87	42	44
666	-34	-100	1890	87	42	44
671	-32	-96	1910	87	42	44
676	-22	-90	1926	87	42	44
681	-33	-63	1932	87	42	44
686	-41	-65	1902	-167	26	28
691	-24	-55	1919	-167	26	28
696	-35	-62	1895	-167	26	28
701	-30	-63	1913	-167	26	28
706	-34	-73	1923	-167	26	28
711	-29	-78	1956	-167	26	28
716	-38	-88	1892	-12	52	8
721	-33	-95	1914	-12	52	8
726	-29	-99	1940	-12	52	8
731	-33	-97	1899	-12	52	8
736	-31	-100	1912	-12	52	8
741	-26	-100	1935	-12	52	8
746	-38	-102	1902	42	45	21
751	-41	-106	1903	42	45	21
756	-29	-88	1928	42	45	21
761	-27	-91	1923	42	45	21
766	-39	-87	1925	42	45	21
771	-25	-61	1934	42	45	21
776	-36	-65	1905	42	45	21
781	-31	-64	1912	-141	51	-67
786	-35	-66	1888	-141	51	-67
791	-30	-69	1921	-141	51	-67
796	-38	-65	1925	-141	51	-67
801	-31	-76	1899	-141	51	-67
806	-22	-100	1911	-141	51	-67
811	-34	-97	1914	52	38	46
816	-27	-101	1904	52	38	46
821	-35	-108	1930	52	38	46
826	-20	-94	1916	52	38	46
831	-25	-101	1906	52	38	46
836	-27	-98	1905	52	38	46
841	-26	-95	1916	-112	-14	-128
846	-23	-75	1915	-112	-14	-128
851	-21	-64	1920	-112	-14	-128
856	-34	-65	1909	-112	-14	-128
861	-30	-65	1917	-112	-14	-128
866	-26	-60	1906	-112	-14	-128
871	-28	-76	1924	-4	-12	41
876	-33	-79	1897	-4	-12	41
881	-28	-92	1924	-4	-12	41
886	-37	-100	1933	-4	-12	41
891	-26	-97	1906	-4	-12	41
896	-25	-92	1903	-4	-12	41
901	-26	-90	1916	-114	15	-60
906	-30	-104	1915	-114	15	-60
911	-27	-97	1923	-114	15	-60
916	-26	-74	1918	-114	15	-60
921	-27	-63	1912	-114	15	-60
926	-25	-61	1899	-114	15	-60
931	-34	-68	1910	-114	15	-60
936	-29	-71	1910	15	39	96
941	-22	-70	1930	15	39	96
946	-24	-96	1911	15	39	96
951	-25	-93	1911	15	39	96
956	-29	-93	1908	15	39	96
961	-34	-97	1913	15	39	96
966	-30	-88	1912	-46	12	18
971	-34	-87	1914	-46	12	18
976	-20	-76	1923	-46	12	18
981	-30	-77	1916	-46	12	18
986	-30	-63	1918	-46	12	18
991	-30	-66	1917	-46	12	18
996	-41	-68	1918	-37	36	12
1001	-30	-83	1915	-37	36	12
1006	-31	-90	1913	-37	36	12
1011	-33	-95	1904	-37	36	12
1016	-29	-93	1902	-37	36	12
1021	-32	-89	1889	-37	36	12
1026	-35	-94	1917	-145	5	-20
1031	-35	-93	1901	-145	5	-20
1036	-25	-78	1928	-145	5	-20
1041	-31	-74	1900	-145	5	-20
1046	-31	-75	1902	-145	5	-20
1051	-34	-80	1912	-145	5	-20
1056	-20	-78	1919	-22	38	-79
1061	-36	-83	1925	-22	38	-79
1066	-26	-86	1911	-22	38	-79
1071	-33	-98	1906	-22	38	-79
1076	-32	-91	1910	-22	38	-79
1081	-34	-102	1934	-22	38	-79
1086	-28	-81	1921	-22	38	-79
1091	-36	-79	1927	-101	63	-33
1096	-25	-74	1922	-101	63	-33
1101	-34	-70	1917	-101	63	-33
1106	-32	-74	1903	-101	63	-33
1111	-33	-83	1924	-101	63	-33
1116	-28	-82	1929	-101	63	-33
1121	-24	-95	1913	-20	16	-85
1126	-22	-101	1914	-20	16	-85
1131	-36	-99	1924	-20	16	-85
1136	-25	-99	1921	-20	16	-85
1141	-36	-78	1914	-20	16	-85
1146	-25	-79	1929	-20	16	-85
1151	-28	-69	1923	-72	76	59
1156	-26	-74	1913	-72	76	59
1161	-24	-73	1924	-72	76	59
1166	-31	-79	1925	-72	76	59
1171	-35	-83	1916	-72	76	59
1176	-32	-90	1910	-72	76	59
1181	-28	-82	1917	-58	-25	-126
1186	-19	-94	1896	-58	-25	-126
1191	-34	-88	1917	-58	-25	-126
1196	-27	-91	1902	-58	-25	-126
1201	-27	-80	1908	-58	-25	-126
1206	-29	-76	1913	-58	-25	-126
1211	-32	-77	1916	-36	29	138
1216	-30	-79	1897	-36	29	138
1221	-24	-79	1898	-36	29	138
1226	-33	-88	1921	-36	29	138
1231	-38	-86	1924	-36	29	138
1236	-28	-92	1917	-36	29	138
1241	-31	-85	1922	-36	29	138
1246	-23	-92	1907	-78	5	-92
1251	-40	-88	1920	-78	5	-92
1256	-42	-82	1920	-78	5	-92
1261	-29	-85	1915	-78	5	-92
1266	-28	-66	1922	-78	5	-92
1271	-30	-79	1923	-78	5	-92
1276	-28	-85	1901	5	-16	-8
1281	-17	-89	1918	5	-16	-8
1286	-33	-95	1923	5	-16	-8
1291	-27	-93	1927	5	-16	-8
1296	-32	-89	1916	5	-16	-8
1301	-33	-88	1924	5	-16	-8
1306	-27	-85	1905	-82	25	8
1311	-31	-84	1910	-82	25	8
1316	-23	-70	1929	-82	25	8
1321	-21	-71	1932	-82	25	8
1326	-36	-74	1906	-82	25	8
1331	-33	-79	1905	-82	25	8
1336	-34	-74	1932	-36	-16	3
1341	-28	-97	1898	-36	-16	3
1346	-32	-90	1912	-36	-16	3
1351	-31	-89	1904	-36	-16	3
1356	-28	-93	1911	-36	-16	3
1361	-21	-83	1911	-36	-16	3
1366	-26	-83	1914	-69	9	-13
1371	-31	-75	1915	-69	9	-13
1376	-39	-75	1919	-69	9	-13
1381	-29	-70	1907	-69	9	-13
1386	-22	-77	1911	-69	9	-13
1391	-28	-84	1920	-69	9	-13
1396	-22	-79	1914	-69	9	-13
1401	-32	-81	1916	-82	29	-35
1406	-27	-86	1898	-82	29	-35
1411	-34	-88	1909	-82	29	-35
1416	-22	-89	1909	-82	29	-35
1421	-27	-84	1913	-82	29	-35
1426	-24	-81	1911	-82	29	-35
1431	-33	-83	1923	-76	65	-41
1436	-29	-76	1919	-76	65	-41
1441	-36	-72	1922	-76	65	-41
1446	-33	-80	1900	-76	65	-41
1451	-24	-89	1908	-76	65	-41
1456	-28	-81	1917	-76	65	-41
1461	-29	-84	1914	-96	38	-65
1466	-26	-91	1913	-96	38	-65
1471	-28	-92	1910	-96	38	-65
1476	-33	-83	1905	-96	38	-65
1481	-27	-93	1913	-96	38	-65
1486	-24	-91	1921	-96	38	-65
1491	-22	-85	1911	-61	18	78
1496	-32	-82	1922	-61	18	78
1501	-31	-79	1914	-61	18	78
1506	-22	-87	1925	-61	18	78
1511	-26	-85	1903	-61	18	78
1516	-36	-72	1932	-61	18	78
1521	-33	-78	1925	-40	-31	-98
1526	-35	-78	1930	-40	-31	-98
1531	-26	-81	1920	-40	-31	-98
1536	-29	-78	1920	-40	-31	-98
1541	-26	-82	1915	-40	-31	-98
1546	-35	-95	1921	-40	-31	-98
1551	-31	-88	1901	-40	-31	-98
1556	-30	-84	1904	-17	-6	116
1561	-33	-82	1914	-17	-6	116
1566	-37	-86	1901	-17	-6	116
1571	-20	-85	1912	-17	-6	116
1576	-25	-86	1911	-17	-6	116
1581	-36	-76	1912	-17	-6	116
1586	-29	-87	1915	-49	8	49
1591	-33	-83	1906	-49	8	49
1596	-23	-84	1912	-49	8	49
1601	-34	-85	1903	-49	8	49
1606	-29	-82	1921	-49	8	49
1611	-20	-82	1926	-49	8	49
1616	-32	-100	2124	-71	26	-23
1621	-37	-103	2083	-71	26	-23
1626	-19	-83	1935	-71	26	-23
1631	-41	-90	1925	-71	26	-23
1636	-20	-87	1832	-71	26	-23
1641	-19	-86	1948	-71	26	-23
1646	-44	-79	1859	-71	12	5
1651	-20	-81	1948	-71	12	5
1656	-22	-85	1897	-71	12	5
1661	-46	-74	1883	-71	12	5
1666	-37	-81	1922	-71	12	5
1671	-17	-94	1947	-71	12	5
1676	-35	-83	1897	-69	25	-16
1681	-32	-89	1889	-69	25	-16
1686	-26	-90	1927	-69	25	-16
1691	-35	-85	1933	-69	25	-16
1696	-26	-79	1887	-69	25	-16
1701	-25	-88	1908	-69	25	-16
1706	-14	-78	1918	-69	25	-16
1711	-37	-91	1918	-78	55	-71
1716	-26	-89	1912	-78	55	-71
1721	-21	-85	1925	-78	55	-71
1726	-29	-81	1919	-78	55	-71
1731	-30	-82	1909	-78	55	-71
1736	-21	-80	1900	-78	55	-71
1741	-29	-84	1909	-74	26	-33
1746	-23	-79	1915	-74	26	-33
1751	-35	-85	1896	-74	26	-33
1756	-39	-79	1917	-74	26	-33
1761	-32	-89	1932	-74	26	-33
1766	-24	-79	1909	-74	26	-33
1771	-31	-84	1912	-72	49	-23
1776	-28	-82	1912	-72	49	-23
1781	-32	-81	1915	-72	49	-23
1786	-24	-76	1910	-72	49	-23
1791	-24	-82	1921	-72	49	-23
1796	-24	-77	1910	-72	49	-23
1801	-31	-94	1924	-39	38	-139
1806	-36	-83	1928	-39	38	-139
1811	-36	-87	1928	-39	38	-139
1816	-32	-82	1919	-39	38	-139
1821	-31	-82	1904	-39	38	-139
1826	-21	-81	1917	-39	38	-139
1831	-34	-85	1924	-43	44	72
1836	-24	-80	1915	-43	44	72
1841	-28	-86	1920	-43	44	72
1846	-31	-82	1923	-43	44	72
1851	-25	-81	1922	-43	44	72
1856	-33	-82	1896	-43	44	72
1861	-33	-95	1914	-43	44	72
1866	-30	-79	1916	-29	-75	25
1871	-34	-83	1905	-29	-75	25
1876	-32	-77	1916	-29	-75	25
1881	-28	-89	1910	-29	-75	25
1886	-31	-80	1927	-29	-75	25
1891	-27	-87	1922	-29	-75	25
1896	-37	-82	1912	-18	13	-7
1901	-33	-79	1926	-18	13	-7
1906	-26	-76	1922	-18	13	-7
1911	-31	-87	1918	-18	13	-7
1916	-27	-90	1917	-18	13	-7
1921	-31	-85	1914	-18	13	-7
1926	-35	-89	1914	-72	-18	44
1931	-27	-78	1901	-72	-18	44
1936	-22	-87	1898	-72	-18	44
1941	-29	-82	1904	-72	-18	44
1946	-27	-78	1908	-72	-18	44
1951	-26	-73	1918	-72	-18	44
1956	-29	-84	1917	-25	32	-26
1961	-29	-74	1915	-25	32	-26
1966	-25	-82	1918	-25	32	-26
1971	-34	-80	1911	-25	32	-26
1976	-39	-83	1915	-25	32	-26
1981	-33	-82	1918	-25	32	-26
1986	-32	-86	1905	-52	-56	21
1991	-26	-80	1911	-52	-56	21
1996	-28	-82	1929	-52	-56	21
2001	-29	-78	1916	-52	-56	21
2006	-25	-82	1915	-52	-56	21
2011	-22	-72	1916	-52	-56	21
2016	-19	-80	1913	-52	-56	21
2021	-30	-77	1927	-52	29	-16
2026	-26	-91	1902	-52	29	-16
2031	-37	-80	1917	-52	29	-16
2036	-34	-88	1923	-52	29	-16
2041	-25	-80	1917	-52	29	-16
2046	-19	-70	1913	-52	29	-16
2051	-30	-80	1908	-87	66	-22
2056	-27	-78	1919	-87	66	-22
2061	-25	-85	1908	-87	66	-22
2066	-21	-91	1920	-87	66	-22
2071	-34	-90	1922	-87	66	-22
2076	-30	-88	1912	-87	66	-22
2081	-29	-94	1909	-82	48	-7
2086	-33	-90	1914	-82	48	-7
2091	-30	-79	1914	-82	48	-7
2096	-33	-80	1915	-82	48	-7
2101	-31	-77	1926	-82	48	-7
2106	-27	-75	1913	-82	48	-7
2111	-30	-78	1914	-56	31	-4
2116	-32	-84	1903	-56	31	-4
2121	-31	-93	1917	-56	31	-4
2126	-33	-89	1917	-56	31	-4
2131	-28	-85	1911	-56	31	-4
2136	-34	-84	1910	-56	31	-4
2141	-34	-81	1920	-60	26	-90
2146	-22	-84	1911	-60	26	-90
2151	-30	-78	1908	-60	26	-90
2156	-27	-73	1916	-60	26	-90
2161	-31	-78	1916	-60	26	-90
2166	-28	-79	1928	-60	26	-90
2171	-35	-81	1905	-60	26	-90
2176	-29	-83	1911	-7	9	52
2181	-35	-85	1904	-7	9	52
2186	-35	-91	1932	-7	9	52
2191	-28	-81	1913	-7	9	52
2196	-29	-92	1915	-7	9	52
2201	-21	-87	1914	-7	9	52
2206	-31	-87	1912	-24	-54	22
2211	-36	-85	1916	-24	-54	22
2216	-23	-76	1908	-24	-54	22
2221	-37	-83	1921	-24	-54	22
2226	-24	-84	1918	-24	-54	22
2231	-33	-87	1913	-24	-54	22
2236	-25	-82	1920	-45	-8	-41
2241	-30	-81	1926	-45	-8	-41
2246	-26	-81	1916	-45	-8	-41
2251	-27	-86	1918	-45	-8	-41
2256	-24	-83	1909	-45	-8	-41
2261	-30	-85	1907	-45	-8	-41
2266	-32	-84	1928	-65	-11	19
2271	-32	-87	1923	-65	-11	19
2276	-26	-83	1919	-65	-11	19
2281	-38	-81	1913	-65	-11	19
2286	-27	-92	1907	-65	-11	19
2291	-29	-86	1922	-65	-11	19
2296	-26	-83	1918	-20	-34	-16
2301	-22	-82	1936	-20	-34	-16
2306	-36	-90	1923	-20	-34	-16
2311	-26	-86	1922	-20	-34	-16
2316	-23	-80	1924	-20	-34	-16
2321	-36	-86	1906	-20	-34	-16
2326	-33	-85	1934	-20	-34	-16
2331	-32	-77	1905	-55	52	-41
2336	-25	-80	1915	-55	52	-41
2341	-29	-86	1913	-55	52	-41
2346	-34	-79	1926	-55	52	-41
2351	-27	-86	1915	-55	52	-41
2356	-31	-82	1924	-55	52	-41
2361	-33	-83	1908	-78	-2	-33
2366	-31	-76	1910	-78	-2	-33
2371	-29	-79	1898	-78	-2	-33
2376	-23	-77	1907	-78	-2	-33
2381	-31	-84	1926	-78	-2	-33
2386	-26	-85	1923	-78	-2	-33
2391	-38	-85	1909	-33	29	-48
2396	-27	-84	1908	-33	29	-48
2401	-30	-79	1912	-33	29	-48
2406	-32	-86	1912	-33	29	-48
2411	-26	-77	1916	-33	29	-48
2416	-40	-76	1926	-33	29	-48
2421	-24	-83	1920	-48	-7	-79
2426	-22	-82	1920	-48	-7	-79
2431	-37	-83	1911	-48	-7	-79
2436	-27	-86	1919	-48	-7	-79
2441	-22	-89	1918	-48	-7	-79
2446	-33	-85	1917	-48	-7	-79
2451	-30	-84	1917	-55	-8	43
2456	-24	-81	1924	-55	-8	43
2461	-31	-85	1906	-55	-8	43
2466	-26	-89	1910	-55	-8	43
2471	-27	-82	1920	-55	-8	43
2476	-28	-83	1914	-55	-8	43
2481	-30	-82	1921	-55	-8	43
2486	-27	-85	1907	-24	-5	-38
2491	-33	-87	1907	-24	-5	-38
2496	-29	-82	1903	-24	-5	-38
2501	-36	-82	1916	-24	-5	-38
2506	-30	-82	1924	-24	-5	-38
2511	-26	-81	1912	-24	-5	-38
2516	-30	-83	1909	-48	-20	25
2521	-32	-83	1922	-48	-20	25
2526	-26	-79	1930	-48	-20	25
2531	-25	-84	1914	-48	-20	25
2536	-33	-86	1925	-48	-20	25
2541	-30	-88	1930	-48	-20	25
2546	-31	-80	1909	7	-22	-11
2551	-28	-80	1916	7	-22	-11
2556	-34	-85	1917	7	-22	-11
2561	-23	-83	1919	7	-22	-11
2566	-26	-83	1924	7	-22	-11
2571	-31	-83	1915	7	-22	-11
2576	-24	-77	1899	-49	-28	0
2581	-27	-79	1910	-49	-28	0
2586	-31	-80	1921	-49	-28	0
2591	-30	-79	1928	-49	-28	0
2596	-33	-78	1926	-49	-28	0
2601	-27	-84	1920	-49	-28	0
2606	-34	-78	1917	-53	26	-5
2611	-33	-73	1915	-53	26	-5
2616	-36	-78	1931	-53	26	-5
2621	-26	-85	1920	-53	26	-5
2626	-23	-83	1906	-53	26	-5
2631	-32	-78	1915	-53	26	-5
2636	-25	-86	1910	-53	26	-5
2641	-23	-80	1925	-32	1	-5
2646	-30	-88	1928	-32	1	-5
2651	-25	-83	1922	-32	1	-5
2656	-26	-74	1910	-32	1	-5
2661	-31	-91	1914	-32	1	-5
2666	-31	-97	1908	-32	1	-5
2671	-30	-83	1929	-76	-42	-2
2676	-32	-82	1905	-76	-42	-2
2681	-40	-84	1919	-76	-42	-2
2686	-25	-85	1909	-76	-42	-2
2691	-30	-87	1904	-76	-42	-2
2696	-26	-84	1915	-76	-42	-2
2701	-30	-89	1924	-46	16	15
2706	-28	-80	1920	-46	16	15
2711	-30	-78	1921	-46	16	15
2716	-30	-79	1906	-46	16	15
2721	-29	-94	1895	-46	16	15
2726	-20	-80	1928	-46	16	15
2731	-29	-82	1908	-48	35	55
2736	-35	-77	1931	-48	35	55
2741	-30	-85	1902	-48	35	55
2746	-33	-89	1916	-48	35	55
2751	-27	-84	1920	-48	35	55
2756	-31	-85	1915	-48	35	55
2761	-33	-91	1921	-56	-66	80
2766	-32	-82	1926	-56	-66	80
2771	-28	-83	1918	-56	-66	80
2776	-27	-88	1921	-56	-66	80
2781	-26	-82	1907	-56	-66	80
2786	-30	-87	1915	-56	-66	80
2791	-29	-80	1923	-56	-66	80
2796	-33	-79	1907	-50	-49	71
2801	-28	-83	1902	-50	-49	71
2806	-33	-82	1910	-50	-49	71
2811	-29	-79	1920	-50	-49	71
2816	-32	-79	1927	-50	-49	71
2821	-25	-92	1918	-50	-49	71
2826	-20	-79	1921	-42	-46	-41
2831	-29	-92	1914	-42	-46	-41
2836	-27	-80	1919	-42	-46	-41
2841	-35	-77	1917	-42	-46	-41
2846	-36	-81	1925	-42	-46	-41
2851	-34	-81	1902	-42	-46	-41
2856	-31	-78	1917	-36	-19	2
2861	-32	-81	1909	-36	-19	2
2866	-34	-91	1902	-36	-19	2
2871	-31	-75	1898	-36	-19	2
2876	-32	-87	1916	-36	-19	2
2881	-34	-84	1906	-36	-19	2
2886	-23	-83	1920	-15	21	40
2891	-41	-82	1904	-15	21	40
2896	-27	-85	1908	-15	21	40
2901	-29	-82	1926	-15	21	40
2906	-36	-85	1907	-15	21	40
2911	-23	-86	1900	-15	21	40
2916	-39	-75	1910	-58	36	-23
2921	-28	-85	1899	-58	36	-23
2926	-32	-80	1917	-58	36	-23
2931	-33	-88	1921	-58	36	-23
2936	-23	-72	1908	-58	36	-23
2941	-30	-82	1918	-58	36	-23
2946	-23	-72	1913	-58	36	-23
2951	-28	-83	1920	-24	15	-16
2956	-25	-79	1926	-24	15	-16
2961	-28	-85	1912	-24	15	-16
2966	-33	-79	1921	-24	15	-16
2971	-30	-90	1917	-24	15	-16
2976	-35	-78	1909	-24	15	-16
2981	-28	-82	1927	-60	-5	-22
2986	-31	-83	1919	-60	-5	-22
2991	-33	-78	1940	-60	-5	-22
2996	-27	-85	1926	-60	-5	-22
3001	-30	-88	1922	-60	-5	-22
3006	-31	-82	1925	-60	-5	-22
3011	-33	-79	1913	-40	11	25
3016	-26	-80	1919	-40	11	25
3021	-32	-89	1907	-40	11	25
3026	-22	-94	1918	-40	11	25
3031	-35	-84	1915	-40	11	25
3036	-24	-88	1918	-40	11	25
3041	-26	-89	1907	-50	-2	-112
3046	-27	-83	1905	-50	-2	-112
3051	-34	-71	1905	-50	-2	-112
3056	-27	-82	1927	-50	-2	-112
3061	-36	-78	1909	-50	-2	-112
3066	-36	-90	1900	-50	-2	-112
3071	-29	-87	1909	-94	53	15
3076	-30	-88	1920	-94	53	15
3081	-27	-87	1924	-94	53	15
3086	-34	-75	1928	-94	53	15
3091	-31	-85	1923	-94	53	15
3096	-28	-78	1904	-94	53	15
3101	-33	-76	1910	-94	53	15
3106	-31	-75	1923	-28	22	-64
3111	-32	-85	1916	-28	22	-64
3116	-32	-85	1907	-28	22	-64
3121	-19	-84	1918	-28	22	-64
3126	-28	-95	1911	-28	22	-64
3131	-30	-79	1907	-28	22	-64
3136	-27	-81	1917	-46	-2	52
3141	-28	-83	1911	-46	-2	52
3146	-38	-77	1909	-46	-2	52
3151	-29	-80	1910	-46	-2	52
3156	-27	-90	1920	-46	-2	52
3161	-32	-88	1919	-46	-2	52
3166	-34	-79	1914	-30	-9	-39
3171	-29	-90	1908	-30	-9	-39
3176	-32	-80	1921	-30	-9	-39
3181	-24	-88	1910	-30	-9	-39
3186	-28	-76	1916	-30	-9	-39
3191	-36	-91	1903	-30	-9	-39
3196	-23	-89	1915	-13	24	-10
3201	-26	-78	1904	-13	24	-10
3206	-32	-77	1918	-13	24	-10
3211	-29	-83	1924	-13	24	-10
3216	-25	-86	1902	-13	24	-10
3221	-32	-85	1904	-13	24	-10
3226	-37	-82	1919	-33	-26	22
3231	-33	-80	1917	-33	-26	22
3236	-30	-87	1915	-33	-26	22
3241	-34	-80	1898	-33	-26	22
3246	-30	-89	1918	-33	-26	22
3251	-31	-80	1914	-33	-26	22
3256	-32	-82	1915	-33	-26	22
3261	-27	-84	1909	-35	25	-74
3266	-25	-82	1915	-35	25	-74
3271	-28	-77	1907	-35	25	-74
3276	-33	-87	1917	-35	25	-74
3281	-32	-85	1914	-35	25	-74
3286	-34	-76	1920	-35	25	-74
3291	-30	-92	1921	-65	9	11
3296	-31	-74	1911	-65	9	11
3301	-31	-87	1911	-65	9	11
3306	-33	-87	1919	-65	9	11
3311	-35	-91	1921	-65	9	11
3316	-21	-78	1915	-65	9	11
3321	-30	-81	1919	-84	25	-104
3326	-30	-78	1903	-84	25	-104
3331	-25	-81	1906	-84	25	-104
3336	-34	-85	1911	-84	25	-104
3341	-31	-76	1908	-84	25	-104
3346	-26	-84	1903	-84	25	-104
3351	-24	-81	1920	-63	1	58
3356	-32	-73	1910	-63	1	58
3361	-34	-78	1924	-63	1	58
3366	-23	-85	1909	-63	1	58
3371	-29	-82	1910	-63	1	58
3376	-28	-81	1913	-63	1	58
3381	-35	-80	1910	-43	9	5
3386	-25	-86	1926	-43	9	5
3391	-35	-76	1905	-43	9	5
3396	-36	-85	1914	-43	9	5
3401	-30	-84	1918	-43	9	5
3406	-36	-89	1922	-43	9	5
3411	-31	-83	1918	-43	9	5
3416	-26	-81	1921	-46	26	52
3421	-27	-79	1928	-46	26	52
3426	-40	-81	1915	-46	26	52
3431	-30	-71	1911	-46	26	52
3436	-19	-77	1909	-46	26	52
3441	-22	-81	1913	-46	26	52
3446	-35	-88	1921	-36	34	-42
3451	-25	-84	1920	-36	34	-42
3456	-31	-86	1915	-36	34	-42
3461	-33	-86	1909	-36	34	-42
3466	-28	-82	1920	-36	34	-42
3471	-34	-86	1913	-36	34	-42
3476	-27	-80	1914	-27	4	11
3481	-23	-80	1915	-27	4	11
3486	-34	-73	1916	-27	4	11
3491	-32	-79	1916	-27	4	11
3496	-28	-75	1903	-27	4	11
3501	-29	-77	1915	-27	4	11
3506	-29	-85	1905	-29	3	31
3511	-34	-81	1924	-29	3	31
3516	-31	-82	1899	-29	3	31
3521	-28	-80	1916	-29	3	31
3526	-33	-84	1920	-29	3	31
3531	-27	-81	1905	-29	3	31
3538	-36	-76	1908	42	49	-10
3541	-31	-84	1916	42	49	-10
3546	-31	-74	1915	42	49	-10
3551	-29	-89	1924	42	49	-10
3556	-30	-87	1919	42	49	-10
3561	-29	-90	1922	42	49	-10
3566	-36	-81	1922	42	49	-10
3571	-32	-71	1917	-49	-25	74
3576	-31	-78	1906	-49	-25	74
3581	-33	-87	1919	-49	-25	74
3586	-33	-84	1908	-49	-25	74
3591	-27	-78	1908	-49	-25	74
3596	-34	-86	1920	-49	-25	74
3601	-33	-84	1916	-49	25	-22
3606	-22	-81	1918	-49	25	-22
3611	-25	-84	1906	-49	25	-22
3616	-30	-77	1921	-49	25	-22
3621	-37	-85	1912	-49	25	-22
3626	-30	-96	1916	-49	25	-22
3631	-29	-78	1914	-92	36	19
3636	-28	-89	1913	-92	36	19
3641	-28	-76	1915	-92	36	19
3646	-28	-78	1911	-92	36	19
3651	-31	-87	1913	-92	36	19
3656	-31	-81	1913	-92	36	19
3661	-32	-87	1928	-64	49	-85
3666	-27	-88	1913	-64	49	-85
3671	-26	-80	1909	-64	49	-85
3676	-26	-85	1908	-64	49	-85
3681	-32	-73	1922	-64	49	-85
3686	-30	-80	1903	-64	49	-85
3691	-33	-82	1930	-55	18	93
3696	-24	-94	1914	-55	18	93
3701	-33	-83	1920	-55	18	93
3706	-33	-84	1915	-55	18	93
3711	-33	-85	1914	-55	18	93
3716	-27	-82	1909	-55	18	93
3721	-28	-80	1934	-55	18	93
3726	-29	-83	1900	-43	15	-134
3731	-27	-82	1915	-43	15	-134
3736	-22	-80	1912	-43	15	-134
3741	-25	-77	1917	-43	15	-134
3746	-30	-88	1917	-43	15	-134
3751	-30	-85	1919	-43	15	-134
3756	-36	-86	1916	-37	12	88
3761	-30	-83	1918	-37	12	88
3766	-28	-78	1922	-37	12	88
3771	-30	-83	1907	-37	12	88
3776	-34	-78	1909	-37	12	88
3781	-31	-78	1914	-37	12	88
3786	-32	-81	1911	-26	32	-35
3791	-28	-81	1914	-26	32	-35
3796	-31	-85	1916	-26	32	-35
3801	-33	-81	1915	-26	32	-35
3806	-30	-87	1929	-26	32	-35
3811	-25	-78	1913	-26	32	-35
3816	-27	-89	1921	-41	4	17
3821	-27	-87	1920	-41	4	17
3826	-41	-84	1907	-41	4	17
3831	-33	-83	1908	-41	4	17
3836	-27	-70	1913	-41	4	17
3841	-17	-80	1914	-41	4	17
3846	-27	-72	1907	-36	31	47
3851	-35	-76	1904	-36	31	47
3856	-32	-84	1908	-36	31	47
3861	-28	-87	1927	-36	31	47
3866	-21	-78	1912	-36	31	47
3871	-23	-75	1913	-36	31	47
3876	-21	-86	1908	-36	31	47
3881	-29	-84	1915	-75	48	-14
3886	-34	-88	1908	-75	48	-14
3891	-40	-83	1911	-75	48	-14
3896	-30	-77	1920	-75	48	-14
3901	-24	-85	1918	-75	48	-14
3906	-30	-82	1916	-75	48	-14
3911	-30	-85	1912	-89	-2	-52
3916	-27	-80	1926	-89	-2	-52
3921	-28	-83	1906	-89	-2	-52
3926	-31	-77	1908	-89	-2	-52
3931	-33	-80	1907	-89	-2	-52
3936	-26	-78	1914	-89	-2	-52
3941	-33	-87	1906	-30	30	-60
3946	-35	-76	1910	-30	30	-60
3951	-29	-87	1902	-30	30	-60
3956	-30	-84	1916	-30	30	-60
3961	-32	-88	1911	-30	30	-60
3966	-31	-80	1908	-30	30	-60
3971	-35	-86	1927	-79	16	6
3976	-31	-83	1919	-79	16	6
3981	-26	-83	1906	-79	16	6
3986	-32	-81	1910	-79	16	6
3991	-36	-86	1897	-79	16	6
3996	-28	-82	1923	-79	16	6
4001	-33	-87	1921	-25	34	-95
4006	-21	-82	1922	-25	34	-95
4011	-29	-79	1908	-25	34	-95
4016	-33	-85	1909	-25	34	-95
4021	-26	-82	1910	-25	34	-95
4026	-29	-82	1930	-25	34	-95
4031	-28	-86	1931	-25	34	-95
4036	-27	-77	1931	-17	-4	85
4041	-24	-79	1908	-17	-4	85
4046	-23	-82	1914	-17	-4	85
4051	-29	-85	1897	-17	-4	85
4056	-19	-81	1920	-17	-4	85
4061	-23	-90	1930	-17	-4	85
4066	-28	-81	1918	-27	8	-80
4071	-30	-81	1909	-27	8	-80
4076	-29	-78	1913	-27	8	-80
4081	-26	-83	1928	-27	8	-80
4086	-30	-76	1916	-27	8	-80
4091	-36	-79	1928	-27	8	-80
4096	-31	-73	1924	-31	49	24
4101	-23	-77	1914	-31	49	24
4106	-20	-83	1919	-31	49	24
4111	-25	-77	1915	-31	49	24
4116	-29	-86	1917	-31	49	24
4121	-30	-84	1927	-31	49	24
4126	-30	-77	1906	-37	-2	-49
4131	-27	-86	1914	-37	-2	-49
4136	-29	-81	1916	-37	-2	-49
4141	-27	-81	1915	-37	-2	-49
4146	-31	-79	1917	-37	-2	-49
4151	-34	-82	1922	-37	-2	-49
4156	-27	-81	1919	-33	32	28
4161	-31	-80	1918	-33	32	28
4166	-26	-75	1907	-33	32	28
4171	-36	-89	1938	-33	32	28
4176	-35	-91	1900	-33	32	28
4181	-36	-79	1924	-33	32	28
4186	-25	-81	1920	-33	32	28
4191	-33	-85	1910	-59	35	-44
4196	-21	-76	1901	-59	35	-44
4201	-24	-87	1926	-59	35	-44
4206	-36	-87	1933	-59	35	-44
4211	-34	-79	1917	-59	35	-44
4216	-30	-79	1921	-59	35	-44
4221	-26	-84	1914	-55	1	-57
4226	-30	-83	1914	-55	1	-57
4231	-19	-81	1919	-55	1	-57
4236	-29	-83	1918	-55	1	-57
4241	-32	-88	1913	-55	1	-57
4246	-28	-88	1921	-55	1	-57
4251	-27	-87	1916	-68	5	-48
4256	-26	-90	1909	-68	5	-48
4261	-26	-81	1914	-68	5	-48
4266	-30	-83	1922	-68	5	-48
4271	-28	-87	1914	-68	5	-48
4276	-25	-85	1909	-68	5	-48
4281	-30	-74	1897	-40	45	-92
4286	-32	-81	1907	-40	45	-92
4291	-29	-81	1908	-40	45	-92
4296	-31	-74	1915	-40	45	-92
4301	-25	-74	1916	-40	45	-92
4306	-29	-85	1907	-40	45	-92
4311	-28	-84	1924	-59	34	61
4316	-22	-84	1908	-59	34	61
4321	-27	-92	1907	-59	34	61
4326	-30	-75	1920	-59	34	61
4331	-22	-77	1909	-59	34	61
4336	-26	-85	1890	-59	34	61
4341	-28	-77	1922	-59	34	61
4346	-33	-85	1924	-53	9	-114
4351	-33	-83	1910	-53	9	-114
4356	-31	-74	1921	-53	9	-114
4361	-27	-80	1902	-53	9	-114
4366	-25	-85	1911	-53	9	-114
4371	-38	-86	1916	-53	9	-114
4376	-28	-83	1911	-72	19	47
4381	-19	-79	1925	-72	19	47
4386	-23	-76	1915	-72	19	47
4391	-19	-82	1922	-72	19	47
4396	-30	-89	1914	-72	19	47
4401	-25	-82	1926	-72	19	47
4406	-19	-69	1909	-39	41	-109
4411	-31	-78	1924	-39	41	-109
4416	-25	-82	1911	-39	41	-109
4421	-23	-86	1918	-39	41	-109
4426	-30	-82	1908	-39	41	-109
4431	-28	-75	1926	-39	41	-109
4436	-32	-81	1931	-17	-22	65
4441	-36	-75	1915	-17	-22	65
4446	-29	-75	1911	-17	-22	65
4451	-23	-80	1916	-17	-22	65
4456	-30	-83	1920	-17	-22	65
4461	-24	-87	1918	-17	-22	65
4466	-32	-80	1920	-83	34	-26
4471	-30	-78	1906	-83	34	-26
4476	-34	-79	1912	-83	34	-26
4481	-31	-82	1913	-83	34	-26
4486	-28	-78	1915	-83	34	-26
4491	-30	-78	1918	-83	34	-26
4496	-31	-82	1917	-83	34	-26
4501	-26	-90	1912	-54	22	-19
4506	-30	-80	1904	-54	22	-19
4511	-30	-82	1920	-54	22	-19
4516	-29	-80	1916	-54	22	-19
4521	-26	-82	1911	-54	22	-19
4526	-32	-78	1908	-54	22	-19
4531	-37	-79	1919	-87	0	-42
4536	-26	-78	1908	-87	0	-42
4541	-31	-87	1912	-87	0	-42
4546	-33	-80	1928	-87	0	-42
4551	-33	-80	1914	-87	0	-42
4556	-26	-79	1917	-87	0	-42
4561	-25	-83	1923	-78	41	-80
4566	-31	-87	1925	-78	41	-80
4571	-26	-89	1906	-78	41	-80
4576	-36	-83	1918	-78	41	-80
4581	-30	-83	1922	-78	41	-80
4586	-33	-85	1915	-78	41	-80
4591	-38	-82	1925	-77	-11	-33
4596	-34	-77	1926	-77	-11	-33
4601	-30	-78	1919	-77	-11	-33
4606	-33	-81	1909	-77	-11	-33
4611	-28	-80	1926	-77	-11	-33
4616	-25	-84	1920	-77	-11	-33
4621	-29	-71	1922	-59	61	-115
4626	-28	-73	1905	-59	61	-115
4631	-26	-90	1908	-59	61	-115
4636	-22	-81	1922	-59	61	-115
4641	-32	-80	1893	-59	61	-115
4646	-26	-70	1910	-59	61	-115
4651	-27	-87	1923	-59	61	-115
4656	-24	-81	1918	-58	76	65
4661	-30	-86	1908	-58	76	65
4666	-32	-79	1909	-58	76	65
4671	-27	-89	1911	-58	76	65
4676	-37	-84	1911	-58	76	65
4681	-26	-79	1921	-58	76	65
4686	-23	-82	1915	-10	1	-123
4691	-33	-76	1928	-10	1	-123
4696	-32	-84	1935	-10	1	-123
4701	-27	-85	1910	-10	1	-123
4706	-26	-83	1916	-10	1	-123
4711	-34	-86	1921	-10	1	-123
4716	-30	-79	1912	-33	15	55
4721	-23	-93	1907	-33	15	55
4726	-25	-82	1932	-33	15	55
4731	-34	-76	1921	-33	15	55
4736	-28	-78	1913	-33	15	55
4741	-34	-80	1918	-33	15	55
4746	-28	-92	1904	-3	-30	-93
4751	-36	-82	1917	-3	-30	-93
4756	-28	-85	1930	-3	-30	-93
4761	-33	-85	1919	-3	-30	-93
4766	-35	-77	1899	-3	-30	-93
4771	-27	-90	1914	-3	-30	-93
4776	-32	-91	1910	-30	41	-41
4781	-27	-85	1921	-30	41	-41
4786	-26	-84	1915	-30	41	-41
4791	-34	-82	1901	-30	41	-41
4796	-31	-83	1918	-30	41	-41
4801	-30	-74	1922	-30	41	-41
4806	-29	-88	1903	-30	41	-41
4811	-31	-82	1903	-73	52	-13
4816	-39	-81	1915	-73	52	-13
4821	-32	-86	1920	-73	52	-13
4826	-20	-85	1912	-73	52	-13
4831	-26	-83	1930	-73	52	-13
4836	-37	-84	1922	-73	52	-13
4841	-25	-87	1924	-26	1	-36
4846	-32	-93	1916	-26	1	-36
4851	-25	-80	1901	-26	1	-36
4856	-33	-81	1909	-26	1	-36
4861	-25	-84	1905	-26	1	-36
4866	-29	-87	1903	-26	1	-36
4871	-14	-78	1923	-68	26	-19
4876	-35	-85	1909	-68	26	-19
4881	-30	-89	1923	-68	26	-19
4886	-33	-79	1900	-68	26	-19
4891	-28	-89	1891	-68	26	-19
4896	-38	-81	1919	-68	26	-19
4901	-27	-82	1931	-102	12	3
4906	-33	-83	1904	-102	12	3
4911	-23	-84	1905	-102	12	3
4916	-29	-86	1917	-102	12	3
4921	-28	-87	1905	-102	12	3
4926	-34	-84	1907	-102	12	3
4931	-24	-81	1918	-62	39	21
4936	-34	-82	1909	-62	39	21
4941	-36	-87	1917	-62	39	21
4946	-36	-82	1921	-62	39	21
4951	-41	-88	1911	-62	39	21
4956	-31	-72	1932	-62	39	21
4961	-37	-83	1907	-62	39	21
4966	-23	-86	1910	-82	36	-80
4971	-30	-80	1923	-82	36	-80
4976	-24	-86	1910	-82	36	-80
4981	-29	-90	1928	-82	36	-80
4986	-38	-85	1915	-82	36	-80
4991	-27	-87	1901	-82	36	-80
4996	-31	-79	1918	-44	18	59
5001	-24	-79	1905	-44	18	59
5006	-33	-88	1920	-44	18	59
5011	-27	-93	1926	-44	18	59
5016	-27	-89	1904	-44	18	59
5021	-24	-84	1916	-44	18	59
5026	-27	-77	1913	-53	-6	-80
5031	-33	-83	1903	-53	-6	-80
5036	-35	-79	1922	-53	-6	-80
5041	-30	-85	1922	-53	-6	-80
5046	-34	-84	1919	-53	-6	-80
5051	-32	-79	1912	-53	-6	-80
5056	-36	-83	1917	-49	-4	-36
5061	-31	-79	1914	-49	-4	-36
5066	-25	-87	1906	-49	-4	-36
5071	-38	-79	1928	-49	-4	-36
5076	-32	-74	1908	-49	-4	-36
5081	-28	-78	1925	-49	-4	-36
5086	-34	-79	1902	6	2	24
5091	-27	-86	1908	6	2	24
5096	-31	-81	1927	6	2	24
5101	-31	-86	1922	6	2	24
5106	-34	-87	1910	6	2	24
5111	-27	-80	1922	6	2	24
5116	-31	-89	1899	6	2	24
5121	-22	-83	1923	-39	15	-14
5126	-29	-89	1902	-39	15	-14
5131	-29	-82	1917	-39	15	-14
5136	-26	-90	1918	-39	15	-14
5141	-21	-85	1918	-39	15	-14
5146	-27	-89	1904	-39	15	-14
5151	-33	-78	1913	-73	2	-36
5156	-28	-82	1913	-73	2	-36
5161	-31	-78	1924	-73	2	-36
5166	-30	-75	1904	-73	2	-36
5171	-32	-76	1919	-73	2	-36
5176	-34	-83	1907	-73	2	-36
5181	-35	-78	1917	-27	52	-23
5186	-35	-94	1910	-27	52	-23
5191	-29	-89	1913	-27	52	-23
5196	-28	-79	1903	-27	52	-23
5201	-27	-90	1911	-27	52	-23
5206	-28	-81	1924	-27	52	-23
5211	-25	-85	1913	-52	49	-39
5216	-36	-78	1906	-52	49	-39
5221	-26	-86	1934	-52	49	-39
5226	-33	-81	1916	-52	49	-39
5231	-32	-90	1907	-52	49	-39
5236	-17	-76	1910	-52	49	-39
5241	-24	-86	1915	-82	12	-46
5246	-35	-82	1909	-82	12	-46
5251	-33	-88	1901	-82	12	-46
5256	-31	-78	1907	-82	12	-46
5261	-37	-79	1915	-82	12	-46
5266	-27	-83	1931	-82	12	-46
5271	-28	-93	1913	-82	12	-46
5276	-32	-75	1922	-17	30	30
5281	-21	-85	1910	-17	30	30
5286	-28	-83	1915	-17	30	30
5291	-30	-84	1905	-17	30	30
5296	-29	-83	1914	-17	30	30
5301	-27	-85	1914	-17	30	30
5306	-28	-81	1935	-64	-5	-123
5311	-31	-79	1924	-64	-5	-123
5316	-34	-80	1909	-64	-5	-123
5321	-29	-89	1898	-64	-5	-123
5326	-30	-90	1911	-64	-5	-123
5331	-22	-83	1924	-64	-5	-123
5336	-32	-76	1910	-71	32	106
5341	-30	-80	1909	-71	32	106
5346	-31	-85	1909	-71	32	106
5351	-26	-88	1921	-71	32	106
5356	-31	-85	1917	-71	32	106
5361	-27	-79	1911	-71	32	106
5366	-34	-83	1917	-57	-18	37
5371	-19	-83	1904	-57	-18	37
5376	-33	-88	1906	-57	-18	37
5381	-29	-84	1917	-57	-18	37
5386	-28	-78	1922	-57	-18	37
5391	-29	-89	1928	-57	-18	37
5396	-41	-83	1913	-56	15	14
5401	-26	-86	1916	-56	15	14
5406	-37	-85	1928	-56	15	14
5411	-36	-85	1910	-56	15	14
5416	-28	-88	1910	-56	15	14
5421	-30	-78	1927	-56	15	14
5426	-36	-81	1916	-56	15	14
5431	-28	-77	1910	-29	21	21
5436	-27	-87	1905	-29	21	21
5441	-28	-81	1920	-29	21	21
5446	-29	-83	1915	-29	21	21
5451	-31	-84	1921	-29	21	21
5456	-33	-79	1924	-29	21	21
5461	-25	-83	1904	-59	1	-73
5466	-35	-88	1901	-59	1	-73
5471	-29	-86	1907	-59	1	-73
5476	-27	-79	1903	-59	1	-73
5481	-26	-85	1921	-59	1	-73
5486	-40	-80	1912	-59	1	-73
5491	-26	-80	1916	-66	4	-38
5496	-31	-81	1917	-66	4	-38
5501	-34	-85	1910	-66	4	-38
5506	-23	-81	1922	-66	4	-38
5511	-27	-79	1909	-66	4	-38
5516	-30	-82	1905	-66	4	-38
5521	-30	-86	1923	-36	11	-57
5526	-23	-85	1913	-36	11	-57
5531	-26	-84	1905	-36	11	-57
5536	-33	-78	1918	-36	11	-57
5541	-33	-77	1920	-36	11	-57
5546	-28	-80	1912	-36	11	-57
5551	-25	-77	1888	-70	61	61
5559	-32	-80	1911	-70	61	61
5561	-27	-77	1905	-70	61	61
5566	-31	-81	1909	-70	61	61
5571	-28	-78	1907	-70	61	61
5576	-28	-87	1922	-70	61	61
5581	-33	-87	1896	-70	61	61
5586	-31	-83	1919	-79	46	-93
5591	-33	-81	1913	-79	46	-93
5596	-22	-95	1915	-79	46	-93
5601	-25	-88	1915	-79	46	-93
5606	-27	-80	1912	-79	46	-93
5611	-25	-86	1914	-79	46	-93
5616	-23	-79	1911	-62	72	37
5621	-36	-82	1925	-62	72	37
5626	-27	-83	1928	-62	72	37
5631	-30	-87	1914	-62	72	37
5636	-29	-82	1909	-62	72	37
5641	-32	-79	1908	-62	72	37
5646	-31	-85	1913	-59	-12	-36
5651	-25	-83	1926	-59	-12	-36
5656	-28	-75	1932	-59	-12	-36
5661	-31	-80	1923	-59	-12	-36
5666	-33	-88	1898	-59	-12	-36
5671	-28	-83	1920	-59	-12	-36
5676	-28	-86	1919	-18	28	-5
5681	-29	-83	1916	-18	28	-5
5686	-30	-86	1902	-18	28	-5
5691	-26	-88	1896	-18	28	-5
5696	-23	-76	1936	-18	28	-5
5701	-30	-72	1917	-18	28	-5
5706	-26	-80	1918	-30	2	-2
5711	-26	-87	1907	-30	2	-2
5716	-31	-88	1923	-30	2	-2
5721	-23	-87	1908	-30	2	-2
5726	-27	-79	1913	-30	2	-2
5731	-26	-86	1914	-30	2	-2
5736	-41	-81	1923	-30	2	-2
5741	-23	-85	1911	-40	2	-19
5746	-37	-85	1923	-40	2	-19
5751	-32	-82	1934	-40	2	-19
5756	-29	-82	1913	-40	2	-19
5761	-29	-89	1917	-40	2	-19
5766	-38	-79	1920	-40	2	-19
5771	-29	-79	1925	-43	-54	-24
5776	-31	-90	1919	-43	-54	-24
5781	-36	-91	1897	-43	-54	-24
5786	-18	-82	1915	-43	-54	-24
5791	-31	-86	1915	-43	-54	-24
5796	-29	-87	1921	-43	-54	-24
5801	-29	-78	1908	-66	-28	-51
5806	-28	-77	1921	-66	-28	-51
5811	-25	-80	1910	-66	-28	-51
5816	-26	-77	1921	-66	-28	-51
5821	-35	-85	1923	-66	-28	-51
5826	-34	-85	1910	-66	-28	-51
5831	-29	-83	1903	-52	29	-44
5836	-23	-87	1905	-52	29	-44
5841	-29	-85	1918	-52	29	-44
5846	-25	-85	1929	-52	29	-44
5851	-20	-87	1908	-52	29	-44
5856	-31	-82	1923	-52	29	-44
5861	-40	-85	1914	-98	59	-74
5866	-29	-77	1908	-98	59	-74
5871	-29	-78	1904	-98	59	-74
5876	-32	-79	1923	-98	59	-74
5881	-30	-82	1919	-98	59	-74
5886	-29	-83	1929	-98	59	-74
5891	-33	-89	1912	-98	59	-74
5896	-27	-76	1925	-85	33	-49
5901	-34	-83	1905	-85	33	-49
5906	-34	-79	1917	-85	33	-49
5911	-37	-85	1922	-85	33	-49
5916	-28	-77	1926	-85	33	-49
5921	-24	-84	1930	-85	33	-49
5926	-34	-85	1904	-78	35	-120
5931	-26	-84	1907	-78	35	-120
5936	-32	-83	1912	-78	35	-120
5941	-31	-88	1922	-78	35	-120
5946	-24	-89	1917	-78	35	-120
5951	-24	-84	1913	-78	35	-120
5956	-30	-87	1909	-76	-30	14
5961	-25	-81	1920	-76	-30	14
5966	-30	-74	1911	-76	-30	14
5971	-27	-78	1920	-76	-30	14
5976	-31	-86	1931	-76	-30	14
5981	-34	-77	1919	-76	-30	14
5986	-26	-87	1925	25	2	12
5991	-37	-82	1910	25	2	12
5996	-31	-86	1910	25	2	12
6001	-27	-84	1916	25	2	12
6006	-34	-84	1906	25	2	12
6011	-34	-80	1926	25	2	12
6016	-26	-80	1894	-33	66	104
6021	-31	-84	1904	-33	66	104
6026	-24	-76	1910	-33	66	104
6031	-36	-84	1917	-33	66	104
6036	-28	-83	1930	-33	66	104
6041	-31	-82	1920	-33	66	104
6046	-23	-83	1910	-33	66	104
6051	-30	-91	1902	-32	-5	52
6056	-26	-87	1926	-32	-5	52
6061	-35	-80	1923	-32	-5	52
6066	-22	-86	1917	-32	-5	52
6071	-33	-83	1907	-32	-5	52
6076	-27	-89	1922	-32	-5	52
6081	-31	-88	1913	-26	21	-1
6086	-32	-82	1913	-26	21	-1
6091	-27	-79	1903	-26	21	-1
6096	-32	-84	1906	-26	21	-1
6101	-28	-85	1912	-26	21	-1
6106	-25	-94	1925	-26	21	-1
6111	-32	-81	1916	-37	-9	21
6116	-36	-83	1909	-37	-9	21
6121	-33	-76	1928	-37	-9	21
6126	-23	-83	1911	-37	-9	21
6131	-29	-87	1916	-37	-9	21
6136	-29	-81	1928	-37	-9	21
6141	-34	-76	1921	-105	8	-8
6146	-29	-79	1907	-105	8	-8
6151	-29	-81	1914	-105	8	-8
6156	-28	-76	1913	-105	8	-8
6161	-29	-85	1912	-105	8	-8
6166	-29	-77	1915	-105	8	-8
6171	-38	-81	1919	-86	12	22
6176	-27	-76	1925	-86	12	22
6181	-30	-82	1910	-86	12	22
6186	-30	-90	1907	-86	12	22
6191	-29	-87	1903	-86	12	22
6196	-35	-82	1912	-86	12	22
6201	-28	-75	1919	-86	12	22
6206	-32	-89	1912	-32	69	-32
6211	-35	-84	1910	-32	69	-32
6216	-20	-76	1919	-32	69	-32
6221	-32	-76	1928	-32	69	-32
6226	-33	-89	1914	-32	69	-32
6231	-30	-83	1911	-32	69	-32
6236	-34	-78	1909	-42	5	112
6241	-36	-84	1915	-42	5	112
6246	-23	-88	1900	-42	5	112
6251	-33	-82	1916	-42	5	112
6256	-26	-78	1922	-42	5	112
6261	-27	-90	1912	-42	5	112
6266	-24	-75	1918	-24	8	-14
6271	-28	-78	1912	-24	8	-14
6276	-35	-85	1920	-24	8	-14
6281	-31	-82	1914	-24	8	-14
6286	-35	-85	1920	-24	8	-14
6291	-44	-78	1907	-24	8	-14
6296	-27	-85	1916	-37	-59	63
6301	-27	-83	1916	-37	-59	63
6306	-31	-87	1916	-37	-59	63
6311	-35	-85	1919	-37	-59	63
6316	-32	-84	1915	-37	-59	63
6321	-32	-81	1927	-37	-59	63
6326	-25	-86	1913	-35	-11	65
6331	-33	-76	1907	-35	-11	65
6336	-30	-81	1921	-35	-11	65
6341	-34	-79	1925	-35	-11	65
6346	-25	-78	1923	-35	-11	65
6351	-31	-85	1900	-35	-11	65
6356	-27	-91	1927	-35	-11	65
6361	-28	-88	1912	-17	-25	-29
6366	-31	-77	1931	-17	-25	-29
6371	-29	-84	1915	-17	-25	-29
6376	-36	-77	1908	-17	-25	-29
6381	-32	-85	1925	-17	-25	-29
6386	-26	-81	1899	-17	-25	-29
6391	-24	-85	1927	-59	-15	8
6396	-27	-95	1907	-59	-15	8
6401	-35	-83	1913	-59	-15	8
6406	-30	-83	1911	-59	-15	8
6411	-24	-86	1925	-59	-15	8
6416	-29	-84	1911	-59	-15	8
6421	-31	-85	1926	-25	-41	0
6426	-31	-87	1932	-25	-41	0
6431	-34	-86	1912	-25	-41	0
6436	-27	-91	1927	-25	-41	0
6441	-28	-80	1918	-25	-41	0
6446	-34	-85	1916	-25	-41	0
6451	-24	-80	1919	-66	36	-33
6456	-35	-84	1908	-66	36	-33
6461	-37	-86	1912	-66	36	-33
6466	-13	-80	1918	-66	36	-33
6471	-30	-78	1929	-66	36	-33
6476	-34	-90	1896	-66	36	-33
6481	-23	-89	1918	-69	22	-16
6486	-24	-80	1907	-69	22	-16
6491	-29	-81	1917	-69	22	-16
6496	-35	-75	1909	-69	22	-16
6501	-30	-77	1911	-69	22	-16
6506	-27	-88	1916	-69	22	-16
6511	-33	-80	1911	-69	22	-16
6516	-25	-91	1910	-66	61	-65
6521	-35	-77	1924	-66	61	-65
6526	-21	-80	1912	-66	61	-65
6531	-23	-82	1917	-66	61	-65
6536	-26	-82	1909	-66	61	-65
6541	-24	-88	1910	-66	61	-65
6546	-41	-82	1904	-18	44	-114
6551	-32	-68	1919	-18	44	-114
6556	-24	-84	1909	-18	44	-114
6561	-20	-90	1902	-18	44	-114
6566	-24	-80	1917	-18	44	-114
6571	-29	-84	1941	-18	44	-114
6576	-41	-82	1903	-40	32	24
6581	-26	-82	1912	-40	32	24
6586	-26	-84	1910	-40	32	24
6591	-30	-84	1909	-40	32	24
6596	-30	-81	1903	-40	32	24
6601	-27	-88	1917	-40	32	24
6606	-29	-88	1915	-43	16	0
6611	-38	-78	1921	-43	16	0
6616	-33	-86	1907	-43	16	0
6621	-28	-87	1926	-43	16	0
6626	-29	-83	1907	-43	16	0
6631	-30	-75	1924	-43	16	0
6636	-23	-73	1923	-43	0	3
6641	-21	-81	1923	-43	0	3
6646	-30	-83	1908	-43	0	3
6651	-24	-86	1913	-43	0	3
6656	-34	-88	1919	-43	0	3
6661	-30	-84	1914	-43	0	3
6666	-35	-82	1922	-43	0	3
6671	-35	-82	1918	-23	8	68
6676	-28	-84	1909	-23	8	68
6681	-30	-84	1908	-23	8	68
6686	-36	-88	1902	-23	8	68
6691	-28	-82	1908	-23	8	68
6696	-39	-77	1907	-23	8	68
6701	-34	-86	1920	-23	-5	-29
6706	-34	-83	1903	-23	-5	-29
6711	-30	-77	1897	-23	-5	-29
6716	-22	-95	1942	-23	-5	-29
6721	-31	-86	1933	-23	-5	-29
6726	-42	-77	1905	-23	-5	-29
6731	-20	-81	1909	903	-61	78
6736	-22	123	1929	903	-61	78
6741	-33	414	1996	903	-61	78
6746	95	-116	2201	903	-61	78
6751	0	-164	1600	903	-61	78
6756	22	-181	1539	903	-61	78
6761	-225	-587	1833	-217	-95	-51
6766	-186	-464	2977	-217	-95	-51
6771	-63	-775	1815	-217	-95	-51
6776	32	-133	1608	-217	-95	-51
6781	30	948	2239	-217	-95	-51
6786	43	539	1659	-217	-95	-51
6791	55	77	1748	-461	45	-80
6796	41	320	2285	-461	45	-80
6801	70	316	1835	-461	45	-80
6806	-6	219	2223	-461	45	-80
6811	-40	116	1908	-461	45	-80
6816	-96	26	1751	-461	45	-80
6821	-189	53	1926	-461	45	-80
6826	-141	17	1907	-119	83	118
6831	-27	-49	1987	-119	83	118
6836	-54	101	1828	-119	83	118
6841	-28	31	1944	-119	83	118
6846	-8	-35	1920	-119	83	118
6851	30	17	1909	-119	83	118
6856	-24	-10	1919	-194	15	207
6861	-62	-44	1919	-194	15	207
6866	-43	-66	1913	-194	15	207
6871	-47	-2	1908	-194	15	207
6876	-54	-5	1902	-194	15	207
6881	-32	97	1928	-194	15	207
6886	-23	102	1904	-155	-1	-130
6891	-16	65	1933	-155	-1	-130
6896	-36	60	1920	-155	-1	-130
6901	-61	21	1913	-155	-1	-130
6906	-60	-29	1911	-155	-1	-130
6911	-48	-119	1942	-155	-1	-130
6916	-34	-85	1915	-75	-12	280
6921	-36	-70	1911	-75	-12	280
6926	-27	-154	1900	-75	-12	280
6931	-26	-161	1921	-75	-12	280
6936	-34	-91	1911	-75	-12	280
6941	-32	-90	1922	-75	-12	280
6946	-36	-37	1903	-59	38	-52
6951	-31	16	1929	-59	38	-52
6956	-21	-19	1902	-59	38	-52
6961	-22	-2	1932	-59	38	-52
6966	-28	28	1918	-59	38	-52
6971	-37	51	1912	-59	38	-52
6976	-36	35	1931	-59	38	-52
6981	-41	20	1920	13	-26	15
6986	-40	0	1925	13	-26	15
6991	-19	-36	1913	13	-26	15
6996	-37	-60	1904	13	-26	15
7001	-33	-54	1906	13	-26	15
7006	-31	-87	1919	13	-26	15
7011	-32	-47	1908	49	-29	27
7016	-35	-63	1903	49	-29	27
7021	-27	-68	1920	49	-29	27
7026	-34	-36	1913	49	-29	27
7031	-33	-17	1923	49	-29	27
7036	-36	-3	1917	49	-29	27
7041	-38	15	1933	-27	-16	55
7046	-52	-61	1828	-27	-16	55
7051	-31	-53	1931	-27	-16	55
7056	-22	-87	1970	-27	-16	55
7061	-24	-83	1901	-27	-16	55
7066	-34	-23	1910	-27	-16	55
7071	-30	-22	1897	51	29	97
7076	-31	-176	1932	51	29	97
7081	-35	39	1885	51	29	97
7086	-23	33	1945	51	29	97
7091	-31	5	1898	51	29	97
7096	-35	-3	1928	51	29	97
7101	-40	11	1921	-11	29	91
7106	-46	50	1919	-11	29	91
7111	-26	29	1914	-11	29	91
7116	-22	5	1911	-11	29	91
7121	-41	-24	1928	-11	29	91
7126	-43	-60	1907	-11	29	91
7131	-45	-82	1906	-11	29	91
7136	-33	16	1918	-24	28	77
7141	-31	37	1911	-24	28	77
7146	-22	25	1914	-24	28	77
7151	-31	-14	1916	-24	28	77
7156	-31	6	1914	-24	28	77
7161	-34	38	1908	-24	28	77
7166	-28	36	1951	-21	29	-67
7171	-27	45	1924	-21	29	-67
7176	-50	22	1868	-21	29	-67
7181	-15	-52	2014	-21	29	-67
7186	-54	-8	1852	-21	29	-67
7191	-40	9	1881	-21	29	-67
7196	-20	-44	1944	43	-4	185
7201	-35	-79	1914	43	-4	185
7206	-40	-9	1918	43	-4	185
7211	-37	11	1905	43	-4	185
7216	-27	-9	1947	43	-4	185
7221	-42	11	1926	43	-4	185
7226	-24	48	1904	32	-22	9
7231	-26	47	1928	32	-22	9
7236	-28	61	1916	32	-22	9
7241	-31	17	1914	32	-22	9
7246	-21	3	1946	32	-22	9
7251	-40	-11	1879	32	-22	9
7256	-46	-24	1809	21	32	-46
7261	-18	29	1988	21	32	-46
7266	-39	26	1879	21	32	-46
7271	-35	9	1924	21	32	-46
7276	-24	53	1953	21	32	-46
7281	-40	88	1872	21	32	-46
7286	-1	23	2089	21	32	-46
7291	-36	17	1929	41	5	-22
7296	-36	7	1905	41	5	-22
7301	-36	18	1911	41	5	-22
7306	-18	56	1921	41	5	-22
7311	-31	51	1915	41	5	-22
7316	-35	57	1915	41	5	-22
7321	-29	50	1918	19	-39	-55
7326	-35	43	1937	19	-39	-55
7331	-20	47	1920	19	-39	-55
7336	-28	28	1910	19	-39	-55
7341	-32	15	1918	19	-39	-55
7346	-27	42	1917	19	-39	-55
7351	-22	17	1912	-11	18	-46
7356	-29	46	1923	-11	18	-46
7361	-29	36	1903	-11	18	-46
7366	-24	45	1914	-11	18	-46
7371	-34	30	1927	-11	18	-46
7376	-32	40	1904	-11	18	-46
7381	-29	58	1927	-39	21	-19
7386	-30	47	1908	-39	21	-19
7391	-28	46	1928	-39	21	-19
7396	-29	54	1924	-39	21	-19
7401	-25	41	1906	-39	21	-19
7406	-36	3	1904	-39	21	-19
7411	-25	47	1920	-41	19	-30
7416	-43	-4	1900	-41	19	-30
7421	-34	29	1916	-41	19	-30
7426	-23	63	1924	-41	19	-30
7431	-30	51	1910	-41	19	-30
7436	-36	43	1907	-41	19	-30
7441	-33	25	1896	-41	19	-30
7446	-28	41	1903	-9	41	-48
7451	-42	37	1914	-9	41	-48
7456	-39	27	1925	-9	41	-48
7461	-27	49	1918	-9	41	-48
7466	-22	63	1905	-9	41	-48
7471	-29	56	1928	-9	41	-48
7476	-27	46	1917	-37	6	31
7481	-30	33	1926	-37	6	31
7486	-25	43	1921	-37	6	31
7491	-13	45	1934	-37	6	31
7496	-18	52	1927	-37	6	31
7501	-42	50	1926	-37	6	31
7506	-31	37	1901	-94	6	-108
7511	-34	49	1916	-94	6	-108
7516	-38	30	1922	-94	6	-108
7521	-44	23	1919	-94	6	-108
7526	-34	27	1916	-94	6	-108
7531	-31	42	1925	-94	6	-108
7536	-28	67	1911	-70	-8	44
7541	-36	56	1920	-70	-8	44
7546	-32	66	1934	-70	-8	44
7551	-32	56	1914	-70	-8	44
7556	-28	41	1912	-70	-8	44
7561	-36	23	1899	-70	-8	44
7566	-51	23	1907	-91	46	-111
7571	-37	38	1912	-91	46	-111
7576	32	207	2012	-91	46	-111
7581	-7	127	2139	-91	46	-111
7586	-47	-4	1883	-91	46	-111
7591	-16	73	1919	-91	46	-111
7596	-31	23	1927	-91	46	-111
7601	-43	4	1882	-71	-14	8
7606	-27	31	1930	-71	-14	8
7611	-35	30	1905	-71	-14	8
7616	-36	51	1932	-71	-14	8
7621	-29	55	1918	-71	-14	8
7626	-40	51	1905	-71	-14	8
7631	-35	32	1936	-28	-55	-2
7636	-28	33	1912	-28	-55	-2
7641	-30	30	1925	-28	-55	-2
7646	-32	23	1900	-28	-55	-2
7651	-37	24	1909	-28	-55	-2
7656	-21	27	1918	-28	-55	-2
7661	-26	36	1893	-42	2	0
7666	-20	35	1916	-42	2	0
7671	-37	27	1906	-42	2	0
7676	-38	10	1912	-42	2	0
7681	-38	22	1923	-42	2	0
7686	-31	30	1918	-42	2	0
7691	-26	31	1916	-31	5	11
7696	-33	40	1923	-31	5	11
7701	-28	44	1926	-31	5	11
7706	-25	37	1913	-31	5	11
7711	-21	45	1932	-31	5	11
7716	-29	29	1918	-31	5	11
7721	-33	30	1912	-134	190	1093
7726	-24	42	1909	-134	190	1093
7731	-25	28	1940	-134	190	1093
7736	-28	32	1921	-134	190	1093
7741	-39	34	1841	-134	190	1093
7746	-32	16	1901	-134	190	1093
7751	-29	41	1919	-134	190	1093
7756	-38	41	1878	-50	34	3
7761	-33	46	1914	-50	34	3
7766	-30	39	1919	-50	34	3
7771	-32	34	1926	-50	34	3
7776	-25	44	1920	-50	34	3
7781	-26	32	1919	-50	34	3
7786	-40	41	1919	-36	24	-76
7791	-39	34	1900	-36	24	-76
7796	-33	23	1911	-36	24	-76
7801	-32	33	1917	-36	24	-76
7806	-39	19	1919	-36	24	-76
7811	-29	26	1922	-36	24	-76
7816	-27	38	1910	-23	36	94
7821	-25	51	1917	-23	36	94
7826	-24	44	1904	-23	36	94
7831	-22	25	1902	-23	36	94
7836	-32	35	1941	-23	36	94
7841	-36	47	1931	-23	36	94
7846	-33	40	1908	-78	-5	-143
7851	-26	55	1926	-78	-5	-143
7856	-29	30	1926	-78	-5	-143
7861	-26	42	1918	-78	-5	-143
7866	-28	35	1922	-78	-5	-143
7871	-17	40	1927	-78	-5	-143
7876	-37	29	1923	-162	-14	50
7881	-39	14	1913	-162	-14	50
7886	-37	26	1924	-162	-14	50
7891	-23	35	1920	-162	-14	50
7896	-31	28	1911	-162	-14	50
7901	-24	50	1909	-162	-14	50
7906	-19	62	1913	-162	-14	50
7911	-46	31	1868	-120	-25	8
7916	-30	44	1912	-120	-25	8
7921	-32	31	1931	-120	-25	8
7926	-30	18	1909	-120	-25	8
7931	-29	16	1919	-120	-25	8
7936	-7	28	1927	-120	-25	8
7941	-35	24	1932	-105	-5	12
7946	278	255	2091	-105	-5	12
7951	6	93	2036	-105	-5	12
7956	-17	48	1952	-105	-5	12
7961	-42	12	1921	-105	-5	12
7966	-30	31	1918	-105	-5	12
7971	-31	2	1914	-1	-66	41
7976	-23	10	1921	-1	-66	41
7981	-25	34	1921	-1	-66	41
7986	-28	31	1919	-1	-66	41
7991	-31	2	1922	-1	-66	41
7996	-31	-5	1911	-1	-66	41
8001	-24	17	1916	-7	-42	-46
8006	-24	24	1910	-7	-42	-46
8011	-34	22	1916	-7	-42	-46
8016	-23	25	1926	-7	-42	-46
8021	-20	11	1921	-7	-42	-46
8026	-38	20	1916	-7	-42	-46
8031	-20	5	1901	6	-1	-51
8036	-20	-3	1927	6	-1	-51
8041	-30	4	1931	6	-1	-51
8046	-38	0	1905	6	-1	-51
8051	-52	-14	1898	6	-1	-51
8056	-41	9	1914	6	-1	-51
8061	-22	23	1917	6	-1	-51
8066	-34	-165	1955	7	28	-44
8071	-29	44	1908	7	28	-44
8076	-11	30	1919	7	28	-44
8081	-19	48	1903	7	28	-44
8086	-33	23	1911	7	28	-44
8091	-20	67	1938	7	28	-44
8096	-40	61	1895	-56	-14	-19
8101	-28	41	1930	-56	-14	-19
8106	-37	30	1920	-56	-14	-19
8111	-31	46	1907	-56	-14	-19
8116	-30	28	1931	-56	-14	-19
8121	-26	7	1917	-56	-14	-19
8126	-32	20	1897	-75	79	-145
8131	-38	-3	1904	-75	79	-145
8136	-36	46	1920	-75	79	-145
8141	-28	45	1937	-75	79	-145
8146	-26	46	1920	-75	79	-145
8151	-27	32	1935	-75	79	-145
8156	-34	26	1903	-59	41	72
8161	-32	18	1911	-59	41	72
8166	-24	29	1918	-59	41	72
8171	-34	25	1916	-59	41	72
8176	-36	27	1910	-59	41	72
8181	-26	46	1912	-59	41	72
8186	-25	38	1921	-88	58	-64
8191	-28	35	1909	-88	58	-64
8196	-28	23	1925	-88	58	-64
8201	-27	17	1917	-88	58	-64
8206	-59	51	1787	-88	58	-64
8211	-60	31	1784	-88	58	-64
8216	-5	27	2037	-88	58	-64
8221	-42	2	1846	-57	8	107
8226	-22	31	1967	-57	8	107
8231	-28	36	1917	-57	8	107
8236	-39	22	1875	-57	8	107
8241	-23	41	1925	-57	8	107
8246	-38	29	1898	-57	8	107
8251	-40	26	1922	-41	11	-98
8256	-29	35	1928	-41	11	-98
8261	-28	48	1924	-41	11	-98
8266	-25	31	1919	-41	11	-98
8271	-32	16	1923	-41	11	-98
8276	-31	33	1914	-41	11	-98
8281	-28	24	1916	25	18	8
8286	-29	23	1947	25	18	8
8291	-36	12	1908	25	18	8
8296	-35	26	1909	25	18	8
8301	-26	27	1930	25	18	8
8306	-25	32	1939	25	18	8
8311	-25	22	1960	-33	4	-19
8316	-24	32	1940	-33	4	-19
8321	-28	10	1942	-33	4	-19
8326	-27	36	1916	-33	4	-19
8331	-31	46	1904	-33	4	-19
8336	-35	39	1917	-33	4	-19
8341	-27	37	1918	-18	31	109
8346	-29	14	1900	-18	31	109
8351	-31	18	1917	-18	31	109
8356	-33	45	1920	-18	31	109
8361	-22	42	1912	-18	31	109
8366	-34	16	1905	-18	31	109
8371	-32	45	1924	-18	31	109
8376	-28	17	1919	-60	48	-16
8381	-38	33	1915	-60	48	-16
8386	-18	16	1937	-60	48	-16
8391	-29	40	1918	-60	48	-16
8396	-28	33	1905	-60	48	-16
8401	-35	39	1908	-60	48	-16
8406	-28	35	1916	-105	14	-64
8411	-25	17	1914	-105	14	-64
8416	-29	24	1919	-105	14	-64
8421	-23	42	1916	-105	14	-64
8426	-29	38	1907	-105	14	-64
8431	-32	44	1922	-105	14	-64
8436	-26	36	1919	-33	18	39
8441	-24	24	1904	-33	18	39
8446	-29	21	1910	-33	18	39
8451	-27	18	1906	-33	18	39
8456	-39	13	1920	-33	18	39
8461	-30	25	1912	-33	18	39
8466	-31	19	1907	-68	-4	-104
8471	-36	26	1920	-68	-4	-104
8476	-34	42	1919	-68	-4	-104
8481	-32	25	1924	-68	-4	-104
8486	-36	13	1917	-68	-4	-104
8491	-33	18	1898	-68	-4	-104
8496	-24	27	1902	-83	38	-26
8501	-13	25	1920	-83	38	-26
8506	-25	34	1913	-83	38	-26
8511	-31	24	1916	-83	38	-26
8516	-39	27	1912	-83	38	-26
8521	-31	38	1922	-83	38	-26
8526	-29	29	1921	-83	38	-26
8531	-28	24	1902	-59	6	-102
8536	-22	37	1922	-59	6	-102
8541	-28	35	1915	-59	6	-102
8546	-31	20	1907	-59	6	-102
8551	-25	24	1925	-59	6	-102
8556	12	46	2063	-59	6	-102
8561	-40	68	1866	50	127	27
8566	-32	-76	1914	50	127	27
8571	-22	70	1914	50	127	27
8576	593	276	2274	50	127	27
8581	17	85	2150	50	127	27
8586	0	56	1978	50	127	27
8591	-29	-5	1911	-44	31	-20
8596	-28	-5	1921	-44	31	-20
8601	-26	4	1927	-44	31	-20
8606	-29	26	1910	-44	31	-20
8611	-23	2	1917	-44	31	-20
8616	-25	17	1914	-44	31	-20
8621	-36	15	1921	9	14	-26
8626	-34	13	1902	9	14	-26
8631	-33	26	1920	9	14	-26
8636	-31	26	1916	9	14	-26
8641	-18	12	1896	9	14	-26
8646	-33	14	1925	9	14	-26
8651	-22	25	1928	24	45	61
8656	-35	9	1917	24	45	61
8661	-25	24	1925	24	45	61
8666	-22	4	1908	24	45	61
8671	-37	11	1921	24	45	61
8676	-43	16	1907	24	45	61
8681	-28	19	1918	24	45	61
8686	-31	33	1920	-23	9	25
8691	-24	29	1924	-23	9	25
8696	-28	43	1921	-23	9	25
8701	-34	50	1909	-23	9	25
8706	-45	26	1935	-23	9	25
8711	-44	33	1902	-23	9	25
8716	-32	28	1920	-120	21	-58
8721	-9	54	1911	-120	21	-58
8726	-24	31	1913	-120	21	-58
8731	-31	37	1913	-120	21	-58
8736	-21	47	1932	-120	21	-58
8741	-35	63	1916	-120	21	-58
8746	-30	20	1939	-3	71	-310
8751	-40	19	1917	-3	71	-310
8756	-30	18	1913	-3	71	-310
8761	-20	10	1912	-3	71	-310
8766	-20	20	1935	-3	71	-310
8771	31	51	2176	-3	71	-310
8776	16	36	2160	-21	-8	34
8781	-10	47	2018	-21	-8	34
8786	-27	20	1936	-21	-8	34
8791	-38	29	1942	-21	-8	34
8796	-25	30	1953	-21	-8	34
8801	-28	18	1925	-21	-8	34
8806	-31	31	1936	-40	61	-5
8811	-33	31	1897	-40	61	-5
8816	-32	34	1910	-40	61	-5
8821	-32	39	1912	-40	61	-5
8826	-27	36	1943	-40	61	-5
8831	-33	34	1920	-40	61	-5
8836	-31	38	1887	-40	61	-5
8841	-51	13	1906	-36	12	87
8846	-7	43	1936	-36	12	87
8851	-38	22	1924	-36	12	87
8856	-26	18	1941	-36	12	87
8861	-21	25	1965	-36	12	87
8866	-28	54	1927	-36	12	87
8871	-20	41	1920	-66	-14	-117
8876	-23	29	1909	-66	-14	-117
8881	-30	16	1927	-66	-14	-117
8886	-22	40	1948	-66	-14	-117
8891	-22	32	1906	-66	-14	-117
8896	-30	42	1916	-66	-14	-117
8901	-34	37	1909	2	14	11
8906	-33	38	1919	2	14	11
8911	-33	0	1907	2	14	11
8916	-38	30	1909	2	14	11
8921	-28	33	1914	2	14	11
8926	-36	19	1917	2	14	11
8931	-19	33	1921	-10	4	22
8936	-26	27	1938	-10	4	22
8941	-32	33	1911	-10	4	22
8946	-30	35	1910	-10	4	22
8951	-21	33	1919	-10	4	22
8956	-38	38	1908	-10	4	22
8961	-30	34	1913	-40	16	0
8966	-28	36	1927	-40	16	0
8971	-35	24	1920	-40	16	0
8976	-24	25	1931	-40	16	0
8981	-24	36	1931	-40	16	0
8986	-27	34	1907	-40	16	0
8991	-25	33	1921	-40	16	0
8996	-38	23	1923	-93	63	-64
9001	-38	25	1923	-93	63	-64
9006	-33	37	1936	-93	63	-64
9011	-28	44	1914	-93	63	-64
9016	-27	39	1911	-93	63	-64
9021	-26	37	1915	-93	63	-64
9026	-26	17	1929	-45	5	-8
9031	-28	27	1916	-45	5	-8
9036	-23	21	1919	-45	5	-8
9041	-42	27	1910	-45	5	-8
9046	-31	37	1904	-45	5	-8
9051	-27	39	1913	-45	5	-8
9056	-30	35	1924	-46	89	-16
9061	-42	38	1863	-46	89	-16
9066	-44	26	1902	-46	89	-16
9071	-26	28	1912	-46	89	-16
9076	-29	33	1896	-46	89	-16
9081	-38	52	1935	-46	89	-16
9086	-30	32	1926	-98	45	-127
9091	-28	39	1910	-98	45	-127
9096	-28	38	1912	-98	45	-127
9101	-28	45	1919	-98	45	-127
9106	-35	50	1926	-98	45	-127
9111	-30	46	1914	-98	45	-127
9116	-24	29	1916	-98	42	-27
9121	-32	58	1927	-98	42	-27
9126	-27	51	1913	-98	42	-27
9131	-26	39	1929	-98	42	-27
9136	-27	36	1909	-98	42	-27
9141	-27	36	1924	-98	42	-27
9146	-36	35	1912	-98	42	-27
9151	-29	40	1914	-56	26	-105
9156	-20	45	1912	-56	26	-105
9161	-22	42	1910	-56	26	-105
9166	-29	40	1919	-56	26	-105
9171	-34	38	1904	-56	26	-105
9176	-36	45	1913	-56	26	-105
9181	-35	40	1921	-41	19	91
9186	-28	48	1914	-41	19	91
9191	-25	44	1924	-41	19	91
9196	-34	45	1916	-41	19	91
9201	-31	46	1904	-41	19	91
9206	-30	31	1915	-41	19	91
9211	-23	53	1891	-89	34	-83
9216	-33	44	1925	-89	34	-83
9221	-29	49	1913	-89	34	-83
9226	-35	43	1918	-89	34	-83
9231	-38	47	1910	-89	34	-83
9236	-28	25	1926	-89	34	-83
9241	-37	11	1910	-67	9	19
9246	-29	26	1897	-67	9	19
9251	-32	35	1926	-67	9	19
9256	-29	40	1920	-67	9	19
9261	-29	43	1907	-67	9	19
9266	-28	37	1924	-67	9	19
9271	-43	46	1918	-36	8	-178
9276	-30	38	1913	-36	8	-178
9281	-42	19	1924	-36	8	-178
9286	-48	28	1902	-36	8	-178
9291	-31	33	1910	-36	8	-178
9296	-27	53	1931	-36	8	-178
9301	-27	42	1916	-36	8	-178
9306	-25	37	1917	-44	11	-39
9311	-36	27	1924	-44	11	-39
9316	-26	19	1921	-44	11	-39
9321	-45	8	1907	-44	11	-39
9326	-173	-53	1854	-44	11	-39
9331	-38	18	1907	-44	11	-39
9336	-18	40	1913	-83	35	-23
9341	-23	31	1917	-83	35	-23
9346	-29	20	1921	-83	35	-23
9351	-9	57	1925	-83	35	-23
9356	-14	21	1916	-83	35	-23
9361	-22	6	1926	-83	35	-23
9366	-8	18	1942	-20	49	-82
9371	-30	27	1914	-20	49	-82
9376	-34	40	1914	-20	49	-82
9381	-25	35	1916	-20	49	-82
9386	-20	49	1936	-20	49	-82
9391	-16	46	1933	-20	49	-82
9396	-25	34	1932	-69	5	21
9401	-32	15	1918	-69	5	21
9406	-32	19	1912	-69	5	21
9411	-24	28	1909	-69	5	21
9416	-21	25	1924	-69	5	21
9421	-23	39	1927	-69	5	21
9426	-18	25	1927	-90	29	-13
9431	-22	28	1926	-90	29	-13
9436	-32	30	1917	-90	29	-13
9441	-39	31	1905	-90	29	-13
9446	-25	25	1922	-90	29	-13
9451	-33	31	1908	-90	29	-13
9456	-20	29	1904	-90	29	-13
9461	-20	28	1914	-65	-8	100
9466	-28	16	1911	-65	-8	100
9471	-23	7	1936	-65	-8	100
9476	-20	10	1910	-65	-8	100
9481	-29	20	1918	-65	-8	100
9486	-29	24	1920	-65	-8	100
9491	-37	19	1910	-51	-34	-54
9496	-23	30	1914	-51	-34	-54
9501	-21	37	1921	-51	-34	-54
9506	-22	29	1909	-51	-34	-54
9511	-27	36	1921	-51	-34	-54
9516	-30	13	1918	-51	-34	-54
9521	-37	36	1917	-27	4	-57
9526	-28	20	1920	-27	4	-57
9531	-28	29	1923	-27	4	-57
9536	-30	26	1912	-27	4	-57
9541	-30	20	1904	-27	4	-57
9546	-27	17	1919	-27	4	-57
9551	-25	16	1922	-74	-8	24
9556	-27	18	1913	-74	-8	24
9561	-25	19	1920	-74	-8	24
9566	-29	12	1919	-74	-8	24
9571	-29	16	1922	-74	-8	24
9576	-29	11	1916	-74	-8	24
9581	-32	21	1900	-10	-22	27
9586	-31	8	1922	-10	-22	27
9591	-21	25	1915	-10	-22	27
9596	-27	4	1906	-10	-22	27
9601	-22	9	1915	-10	-22	27
9606	-29	12	1925	-10	-22	27
9611	-29	11	1925	-10	-22	27
9616	-28	13	1918	-51	44	-39
9621	-27	16	1922	-51	44	-39
9626	-29	13	1926	-51	44	-39
9631	-26	8	1925	-51	44	-39
9636	-23	17	1922	-51	44	-39
9641	-30	22	1925	-51	44	-39
9646	-32	14	1923	-50	-9	-2
9651	-27	15	1921	-50	-9	-2
9656	-29	11	1917	-50	-9	-2
9661	-32	14	1917	-50	-9	-2
9666	-31	20	1922	-50	-9	-2
9671	-33	17	1907	-50	-9	-2
9676	-20	25	1930	-50	24	-4
9681	-29	27	1907	-50	24	-4
9686	-27	12	1916	-50	24	-4
9691	-34	10	1919	-50	24	-4
9696	-31	6	1910	-50	24	-4
9701	-28	11	1899	-50	24	-4
9706	-27	11	1909	-41	73	-52
9711	-17	10	1909	-41	73	-52
9716	-29	26	1914	-41	73	-52
9721	-21	18	1929	-41	73	-52
9726	-22	28	1912	-41	73	-52
9731	-36	17	1925	-41	73	-52
9736	-19	17	1922	-43	35	-39
9741	-34	15	1927	-43	35	-39
9746	-29	14	1918	-43	35	-39
9751	-26	5	1923	-43	35	-39
9756	-36	16	1912	-43	35	-39
9761	-29	14	1916	-43	35	-39
9766	-31	14	1916	-43	35	-39
9771	-33	23	1922	-53	99	-41
9776	-31	21	1919	-53	99	-41
9781	-29	6	1918	-53	99	-41
9786	-34	11	1923	-53	99	-41
9791	-28	16	1927	-53	99	-41
9796	-22	15	1912	-53	99	-41
9801	-20	12	1920	-41	12	69
9806	-26	20	1930	-41	12	69
9811	-26	7	1919	-41	12	69
9816	-32	18	1912	-41	12	69
9821	-30	27	1923	-41	12	69
9826	-27	23	1908	-41	12	69
9831	-22	26	1911	-61	-21	39
9836	-40	26	1914	-61	-21	39
9841	-30	28	1914	-61	-21	39
9846	-26	32	1907	-61	-21	39
9851	-31	4	1903	-61	-21	39
9856	-31	23	1913	-61	-21	39
9861	-32	19	1917	-15	15	-23
9866	-27	14	1916	-15	15	-23
9871	-26	22	1914	-15	15	-23
9876	-40	20	1910	-15	15	-23
9881	-26	11	1925	-15	15	-23
9886	-38	21	1909	-15	15	-23
9891	-31	26	1916	-55	-45	-39
9896	-27	16	1911	-55	-45	-39
9901	-24	16	1921	-55	-45	-39
9906	-28	10	1913	-55	-45	-39
9911	-28	10	1914	-55	-45	-39
9916	-26	22	1902	-55	-45	-39
9921	-24	15	1932	-55	-45	-39
9926	-26	9	1917	-43	21	3
9931	-23	20	1923	-43	21	3
9936	-27	15	1917	-43	21	3
9941	-35	22	1918	-43	21	3
9946	-20	21	1917	-43	21	3
9951	-27	18	1914	-43	21	3
9956	-23	7	1919	-14	36	-38
9961	-23	23	1918	-14	36	-38
9966	-27	15	1921	-14	36	-38
9971	-28	14	1910	-14	36	-38
9976	-25	18	1921	-14	36	-38
9981	-30	22	1928	-14	36	-38
9986	-26	15	1913	-41	32	-23
9991	-19	17	1910	-41	32	-23
9996	-33	6	1906	-41	32	-23
10001	-25	9	1931	-41	32	-23
10006	-29	14	1911	-41	32	-23
10011	-28	19	1908	-41	32	-23
10016	-33	15	1911	-17	2	-7
10021	-28	27	1913	-17	2	-7
10026	-22	14	1930	-17	2	-7
10031	-27	26	1925	-17	2	-7
10036	-29	16	1911	-17	2	-7
10041	-33	18	1910	-17	2	-7
10046	-21	21	1919	172	55	-17
10051	-34	17	1917	172	55	-17
10056	-21	35	1924	172	55	-17
10061	-16	25	1942	172	55	-17
10066	-2	45	1922	172	55	-17
10071	-23	6	1970	172	55	-17
10076	-41	3	1891	172	55	-17
10081	-43	42	1903	-34	21	-13
10086	-39	58	1896	-34	21	-13
10091	-39	86	1921	-34	21	-13
10096	-32	44	1914	-34	21	-13
10101	-34	48	1899	-34	21	-13
10106	-34	107	1909	-34	21	-13
10111	-36	80	1897	63	-27	-105
10116	-12	-72	2076	63	-27	-105
10121	-85	-15	1860	63	-27	-105
10126	-51	26	1941	63	-27	-105
10131	-30	21	1913	63	-27	-105
10136	-24	80	1923	63	-27	-105
10141	-22	70	1924	-50	-5	-23
10146	-23	76	1900	-50	-5	-23
10151	-15	80	1937	-50	-5	-23
10156	-22	60	1916	-50	-5	-23
10161	-9	79	1906	-50	-5	-23
10166	-11	70	1912	-50	-5	-23
10171	-35	58	1882	-67	-22	49
10176	-30	75	1945	-67	-22	49
10181	-35	62	1901	-67	-22	49
10186	-32	68	1948	-67	-22	49
10191	-36	70	1873	-67	-22	49
10196	-29	80	1934	-67	-22	49
10201	-25	63	1923	-129	-11	96
10206	-27	63	1905	-129	-11	96
10211	-37	62	1900	-129	-11	96
10216	-29	53	1928	-129	-11	96
10221	-38	67	1921	-129	-11	96
10226	-31	74	1904	-129	-11	96
10231	-23	68	1924	-129	-11	96
10236	-31	65	1894	-83	6	21
10241	-31	45	1927	-83	6	21
10246	-31	70	1924	-83	6	21
10251	-33	68	1905	-83	6	21
10256	-28	56	1908	-83	6	21
10261	-29	53	1919	-83	6	21
10266	-33	49	1918	-131	55	-51
10271	-22	46	1909	-131	55	-51
10276	-38	35	1913	-131	55	-51
10281	-35	61	1911	-131	55	-51
10286	-38	58	1921	-131	55	-51
10291	-30	64	1923	-131	55	-51
10296	-32	53	1906	-94	65	-38
10301	-34	44	1919	-94	65	-38
10306	-29	58	1909	-94	65	-38
10311	-34	52	1923	-94	65	-38
10316	-35	51	1920	-94	65	-38
10321	-32	44	1927	-94	65	-38
10326	-37	29	1929	-91	83	-32
10331	-29	44	1914	-91	83	-32
10336	-45	39	1938	-91	83	-32
10341	-36	46	1903	-91	83	-32
10346	-25	36	1919	-91	83	-32
10351	-38	30	1919	-91	83	-32
10356	-37	45	1906	-59	45	47
10361	-24	37	1916	-59	45	47
10366	-35	36	1922	-59	45	47
10371	-34	37	1908	-59	45	47
10376	-33	37	1910	-59	45	47
10381	-31	62	1921	-59	45	47
10386	-41	50	1896	-59	45	47
10391	-32	50	1927	-62	36	-96
10396	-33	42	1914	-62	36	-96
10401	-34	50	1921	-62	36	-96
10406	-36	45	1914	-62	36	-96
10411	-37	36	1925	-62	36	-96
10416	-35	43	1911	-62	36	-96
10421	-33	48	1919	-18	41	55
10426	-30	50	1926	-18	41	55
10431	-28	54	1926	-18	41	55
10436	-26	45	1917	-18	41	55
10441	-30	33	1925	-18	41	55
10446	-36	42	1925	-18	41	55
10451	-31	49	1914	-5	-52	-19
10456	-45	48	1899	-5	-52	-19
10461	-27	42	1911	-5	-52	-19
10466	-31	48	1907	-5	-52	-19
10471	-34	29	1917	-5	-52	-19
10476	-24	32	1909	-5	-52	-19
10481	-21	40	1919	-63	-29	-11
10486	-31	36	1920	-63	-29	-11
10491	-37	33	1908	-63	-29	-11
10496	-37	27	1908	-63	-29	-11
10501	-26	36	1913	-63	-29	-11
10506	-29	40	1936	-63	-29	-11
10511	-28	42	1903	-7	24	-79
10516	-29	45	1922	-7	24	-79
10521	-29	26	1916	-7	24	-79
10526	-31	37	1930	-7	24	-79
10531	-25	33	1913	-7	24	-79
10536	-28	33	1909	-7	24	-79
10541	-33	34	1909	-7	24	-79
10546	-28	40	1920	-65	4	-118
10551	-30	40	1907	-65	4	-118
10556	-16	35	1919	-65	4	-118
10561	-39	41	1923	-65	4	-118
10566	-31	46	1917	-65	4	-118
10571	-30	39	1914	-65	4	-118
10576	-33	44	1910	-7	-15	-23
10581	-27	38	1911	-7	-15	-23
10586	-30	37	1920	-7	-15	-23
10591	-26	39	1932	-7	-15	-23
10596	-30	23	1918	-7	-15	-23
10601	-34	37	1912	-7	-15	-23
10606	-32	41	1909	-56	-24	-33
10611	-30	30	1923	-56	-24	-33
10616	-34	31	1914	-56	-24	-33
10621	-34	46	1919	-56	-24	-33
10626	-31	48	1908	-56	-24	-33
10631	-33	29	1916	-56	-24	-33
10636	-29	37	1915	-72	36	-61
10641	-26	43	1892	-72	36	-61
10646	-29	35	1922	-72	36	-61
10651	-29	37	1921	-72	36	-61
10656	-38	36	1915	-72	36	-61
10661	-25	47	1922	-72	36	-61
10666	-27	45	1913	-70	21	-32
10671	-32	34	1923	-70	21	-32
10676	-34	28	1922	-70	21	-32
10681	-41	40	1916	-70	21	-32
10686	-29	45	1918	-70	21	-32
10691	-34	43	1910	-70	21	-32
10696	-28	49	1918	-70	21	-32
10701	-32	31	1934	-63	52	15
10706	-29	37	1922	-63	52	15
10711	-36	34	1923	-63	52	15
10716	-28	27	1912	-63	52	15
10721	-27	56	1912	-63	52	15
10726	-37	57	1914	-63	52	15
10731	-33	37	1919	-76	-8	-92
10736	-36	44	1916	-76	-8	-92
10741	-30	39	1921	-76	-8	-92
10746	-32	49	1926	-76	-8	-92
10751	-22	32	1916	-76	-8	-92
10756	-32	38	1910	-76	-8	-92
10761	-34	40	1918	-35	26	55
10766	-33	30	1906	-35	26	55
10771	-26	45	1913	-35	26	55
10776	-26	44	1921	-35	26	55
10781	-31	42	1921	-35	26	55
10786	-31	43	1920	-35	26	55
10791	-41	39	1909	-8	-32	61
10796	-29	39	1910	-8	-32	61
10801	-28	42	1916	-8	-32	61
10806	-24	36	1908	-8	-32	61
10811	-23	51	1907	-8	-32	61
10816	-36	50	1925	-8	-32	61
10821	-34	51	1924	-34	-14	-44
10826	-33	37	1910	-34	-14	-44
10831	-31	52	1912	-34	-14	-44
10836	-37	45	1919	-34	-14	-44
10841	-36	47	1919	-34	-14	-44
10846	-36	51	1919	-34	-14	-44
10851	-37	48	1907	-34	-14	-44
10856	-33	56	1922	-81	-14	17
10861	-32	44	1924	-81	-14	17
10866	-37	45	1905	-81	-14	17
10871	-25	46	1930	-81	-14	17
10876	-34	46	1926	-81	-14	17
10881	-39	31	1911	-81	-14	17
10886	-20	49	1925	-52	-26	-51
10891	-23	43	1931	-52	-26	-51
10896	-35	41	1919	-52	-26	-51
10901	-31	47	1927	-52	-26	-51
10906	-38	45	1901	-52	-26	-51
10911	-25	36	1933	-52	-26	-51
10916	-35	48	1929	-33	14	-36
10921	-31	54	1918	-33	14	-36
10926	-19	61	1900	-33	14	-36
10931	-36	42	1913	-33	14	-36
10936	-31	37	1919	-33	14	-36
10941	-22	35	1926	-33	14	-36
10946	-30	30	1919	-108	1	3
10951	-33	47	1911	-108	1	3
10956	-30	36	1923	-108	1	3
10961	-30	33	1920	-108	1	3
10966	-29	49	1902	-108	1	3
10971	-38	42	1928	-108	1	3
10976	-31	16	1916	-115	22	-20
10981	-31	29	1919	-115	22	-20
10986	-35	58	1913	-115	22	-20
10991	-28	51	1936	-115	22	-20
10996	-28	38	1907	-115	22	-20
11001	-42	66	1933	-115	22	-20
11006	-25	69	1920	-115	22	-20
11011	-41	32	1911	-103	29	68
11016	-32	39	1915	-103	29	68
11021	-37	-22	1933	-103	29	68
11026	-49	11	1941	-103	29	68
11031	-44	28	1911	-103	29	68
11036	-43	26	1916	-103	29	68
11041	-46	40	1893	-54	4	77
11046	-40	51	1913	-54	4	77
11051	-23	64	1894	-54	4	77
11056	-4	70	1917	-54	4	77
11061	-6	41	1927	-54	4	77
11066	-26	13	1925	-54	4	77
11071	-33	15	1909	54	-88	84
11076	-45	-13	1906	54	-88	84
11081	-45	-27	1895	54	-88	84
11086	-51	-160	1903	54	-88	84
11091	-48	114	1964	54	-88	84
11096	-14	95	1870	54	-88	84
11101	-12	92	1945	-58	-14	84
11106	-35	74	1924	-58	-14	84
11111	-29	73	1918	-58	-14	84
11116	-40	93	1907	-58	-14	84
11121	-31	48	1925	-58	-14	84
11126	-29	65	1928	-58	-14	84
11131	-20	67	1914	-62	24	-80
11136	-38	59	1927	-62	24	-80
11141	-41	36	1928	-62	24	-80
11146	-44	47	1933	-62	24	-80
11151	-10	53	1916	-62	24	-80
11156	-25	52	1919	-62	24	-80
11161	-24	47	1918	-62	24	-80
11166	-29	33	1926	-34	2	34
11171	-36	43	1913	-34	2	34
11176	-41	44	1911	-34	2	34
11181	-34	51	1927	-34	2	34
11186	-35	37	1922	-34	2	34
11191	-27	23	1929	-34	2	34
11196	-35	48	1934	-33	-1	53
11201	-34	56	1935	-33	-1	53
11206	-40	36	1911	-33	-1	53
11211	-45	56	1930	-33	-1	53
11216	-52	37	1896	-33	-1	53
11221	-35	58	1920	-33	-1	53
11226	-65	37	1886	-79	-8	-19
11231	-7	65	1966	-79	-8	-19
11236	-15	50	1929	-79	-8	-19
11241	-9	52	1920	-79	-8	-19
11246	-22	46	1917	-79	-8	-19
11251	-18	49	1914	-79	-8	-19
11256	-31	26	1917	-44	6	-64
11261	-27	55	1913	-44	6	-64
11266	-30	36	1922	-44	6	-64
11271	-30	36	1925	-44	6	-64
11276	-37	37	1938	-44	6	-64
11281	-18	49	1917	-44	6	-64
11286	-24	61	1922	-71	-5	-20
11291	-25	34	1904	-71	-5	-20
11296	-31	42	1941	-71	-5	-20
11301	-34	54	1907	-71	-5	-20
11306	-32	48	1908	-71	-5	-20
11311	-33	43	1921	-71	-5	-20
11316	-36	43	1896	-71	-5	-20
11321	-26	45	1914	-54	55	-29
11326	-34	41	1914	-54	55	-29
11331	-29	38	1921	-54	55	-29
11336	-43	43	1919	-54	55	-29
11341	-46	27	1868	-54	55	-29
11346	-32	35	1901	-54	55	-29
11351	-22	57	1971	-21	48	-51
11356	-27	64	1898	-21	48	-51
11361	-30	51	1924	-21	48	-51
11366	-24	34	1918	-21	48	-51
11371	-27	54	1942	-21	48	-51
11376	-20	58	1942	-21	48	-51
11381	-38	49	1901	18	-26	91
11386	-30	43	1927	18	-26	91
11391	-37	43	1879	18	-26	91
11396	-35	32	1932	18	-26	91
11401	-43	41	1900	18	-26	91
11406	-27	46	1909	18	-26	91
11411	-37	42	1916	-10	-15	21
11416	-27	47	1909	-10	-15	21
11421	-28	46	1918	-10	-15	21
11426	-22	51	1941	-10	-15	21
11431	-35	33	1912	-10	-15	21
11436	-29	25	1927	-10	-15	21
11441	-26	51	1908	8	46	102
11446	-29	55	1913	8	46	102
11451	-38	64	1902	8	46	102
11456	-28	55	1924	8	46	102
11461	-32	51	1923	8	46	102
11466	-22	63	1923	8	46	102
11471	-26	37	1913	8	46	102
11476	-26	54	1895	-63	2	61
11481	-37	45	1889	-63	2	61
11486	-37	51	1933	-63	2	61
11491	-30	54	1920	-63	2	61
11496	-29	50	1901	-63	2	61
11501	-27	43	1915	-63	2	61
11506	-32	42	1921	-27	-6	-30
11511	-35	47	1906	-27	-6	-30
11516	-37	42	1907	-27	-6	-30
11521	-28	40	1905	-27	-6	-30
11526	-33	55	1919	-27	-6	-30
11531	-17	45	1929	-27	-6	-30
11536	-27	55	1924	-89	-29	37
11541	-32	50	1922	-89	-29	37
11546	-38	54	1922	-89	-29	37
11551	-106	65	1576	-89	-29	37
11556	-105	13	1555	-89	-29	37
11561	-26	70	1938	-89	-29	37
11566	-32	58	1899	-42	21	-19
11571	-39	52	1902	-42	21	-19
11576	-29	32	1941	-42	21	-19
11581	-29	52	1902	-42	21	-19
11586	-29	49	1912	-42	21	-19
11591	-27	58	1916	-42	21	-19
11596	-24	49	1910	-22	-18	0
11601	-26	39	1911	-22	-18	0
11606	-33	56	1926	-22	-18	0
11611	-28	44	1915	-22	-18	0
11616	-28	43	1922	-22	-18	0
11621	-31	59	1892	-22	-18	0
11626	-34	40	1922	-22	-18	0
11631	-26	43	1934	-81	18	-77
11636	-32	51	1916	-81	18	-77
11641	-34	56	1938	-81	18	-77
11646	-33	56	1901	-81	18	-77
11651	-30	42	1923	-81	18	-77
11656	-28	42	1918	-81	18	-77
11661	-31	44	1934	-105	12	24
11666	-30	49	1918	-105	12	24
11671	-26	58	1920	-105	12	24
11676	-37	45	1908	-105	12	24
11681	-27	60	1934	-105	12	24
11686	-31	52	1906	-105	12	24
11691	-30	46	1914	-50	-8	-74
11696	-35	54	1907	-50	-8	-74
11701	-29	48	1926	-50	-8	-74
11706	-33	52	1898	-50	-8	-74
11711	-26	49	1930	-50	-8	-74
11716	-29	39	1909	-50	-8	-74
11721	-25	48	1924	-62	-8	49
11726	-28	46	1909	-62	-8	49
11731	-35	47	1916	-62	-8	49
11736	-25	45	1913	-62	-8	49
11741	-32	40	1925	-62	-8	49
11746	-22	46	1918	-62	-8	49
11751	-17	39	1925	-45	25	-150
11756	-31	60	1923	-45	25	-150
11761	-37	53	1925	-45	25	-150
11766	-27	62	1906	-45	25	-150
11771	-37	36	1931	-45	25	-150
11776	-30	34	1908	-45	25	-150
11781	-32	51	1905	-45	25	-150
11786	-28	54	1916	-14	-41	-4
11791	-30	63	1936	-14	-41	-4
11796	-30	49	1914	-14	-41	-4
11801	-42	51	1909	-14	-41	-4
11806	-30	59	1925	-14	-41	-4
11811	-32	51	1918	-14	-41	-4
11816	-21	41	1910	-36	-24	21
11821	-35	39	1910	-36	-24	21
11826	-30	47	1920	-36	-24	21
11831	-31	45	1917	-36	-24	21
11836	-26	39	1928	-36	-24	21
11841	-27	46	1922	-36	-24	21
11846	-29	54	1920	-75	29	-48
11851	-25	63	1907	-75	29	-48
11856	-29	59	1917	-75	29	-48
11861	-33	49	1903	-75	29	-48
11866	-32	40	1907	-75	29	-48
11871	-38	50	1919	-75	29	-48
11876	-45	34	1894	-69	5	-73
11881	-26	48	1913	-69	5	-73
11886	-22	55	1918	-69	5	-73
11891	-28	55	1912	-69	5	-73
11896	-39	48	1908	-69	5	-73
11901	-32	45	1912	-69	5	-73
11906	-32	38	1928	-125	21	-10
11911	-25	51	1917	-125	21	-10
11916	-50	40	1916	-125	21	-10
11921	-45	44	1903	-125	21	-10
11926	-25	49	1930	-125	21	-10
11931	-18	38	1918	-125	21	-10
11936	-35	18	1914	-125	21	-10
11941	-19	50	1927	-159	31	-65
11946	-34	9	1919	-159	31	-65
11951	-23	42	1939	-159	31	-65
11956	-92	6	1899	-159	31	-65
11961	-19	67	1857	-159	31	-65
11966	-12	68	1910	-159	31	-65
11971	-29	22	1910	-72	5	-89
11976	-24	24	1910	-72	5	-89
11981	-26	29	1912	-72	5	-89
11986	-25	28	1910	-72	5	-89
11991	-25	12	1917	-72	5	-89
11996	-25	22	1919	-72	5	-89
12001	-20	17	1925	-109	36	84
12006	-24	15	1921	-109	36	84
12011	-22	13	1897	-109	36	84
12016	-23	27	1929	-109	36	84
12021	-23	21	1916	-109	36	84
12026	-31	24	1913	-109	36	84
12031	-12	18	1921	-62	8	-55
12036	-22	20	1916	-62	8	-55
12041	-32	22	1910	-62	8	-55
12046	-34	18	1903	-62	8	-55
12051	-33	10	1904	-62	8	-55
12056	-30	20	1920	-62	8	-55
12061	-23	14	1933	-32	49	91
12066	-21	22	1922	-32	49	91
12071	-22	16	1913	-32	49	91
12076	-33	7	1920	-32	49	91
12081	-30	3	1933	-32	49	91
12086	-17	23	1917	-32	49	91
12091	-34	14	1918	-32	49	91
12096	-38	4	1929	-44	18	18
12101	-11	27	1915	-44	18	18
12106	-27	9	1905	-44	18	18
12111	-36	6	1914	-44	18	18
12116	-32	16	1908	-44	18	18
12121	-32	12	1899	-44	18	18
12126	-22	16	1921	-52	-14	-14
12131	-26	10	1916	-52	-14	-14
12136	-26	1	1917	-52	-14	-14
12141	-26	12	1926	-52	-14	-14
12146	-24	8	1919	-52	-14	-14
12151	-24	8	1920	-52	-14	-14
12156	-35	9	1920	-37	-28	53
12161	-16	7	1907	-37	-28	53
12166	-22	17	1917	-37	-28	53
12171	-32	10	1926	-37	-28	53
12176	-25	17	1925	-37	-28	53
12181	-28	8	1919	-37	-28	53
12186	-38	-5	1923	-45	-4	-13
12191	-24	10	1928	-45	-4	-13
12196	-25	3	1908	-45	-4	-13
12201	-23	10	1907	-45	-4	-13
12206	-16	8	1914	-45	-4	-13
12211	-35	14	1919	-45	-4	-13
12216	-38	2	1912	-29	19	2
12221	-39	3	1916	-29	19	2
12226	-27	5	1900	-29	19	2
12231	-29	8	1914	-29	19	2
12236	-39	5	1916	-29	19	2
12241	-22	7	1918	-29	19	2
12246	-15	16	1916	-29	19	2
12251	-25	11	1908	-72	-6	-73
12256	-33	16	1912	-72	-6	-73
12261	-21	7	1907	-72	-6	-73
12266	-29	13	1923	-72	-6	-73
12271	-26	7	1922	-72	-6	-73
12276	-31	12	1898	-72	-6	-73
12281	-27	7	1916	-62	14	65
12286	-20	19	1927	-62	14	65
12291	-14	12	1910	-62	14	65
12296	-27	2	1910	-62	14	65
12301	-33	9	1900	-62	14	65
12306	-34	-1	1919	-62	14	65
12311	-37	5	1912	-68	14	-112
12316	-28	1	1920	-68	14	-112
12321	-31	4	1918	-68	14	-112
12326	-33	3	1910	-68	14	-112
12331	-25	15	1921	-68	14	-112
12336	-21	16	1919	-68	14	-112
12341	-22	12	1903	-18	-6	100
12346	-26	-1	1916	-18	-6	100
12351	-30	-4	1919	-18	-6	100
12356	-30	4	1919	-18	-6	100
12361	-25	1	1919	-18	-6	100
12366	-21	9	1907	-18	-6	100
12371	-29	8	1923	-52	38	-30
12376	-29	11	1919	-52	38	-30
12381	-25	-8	1912	-52	38	-30
12386	-24	13	1927	-52	38	-30
12391	-29	28	1922	-52	38	-30
12396	-33	2	1920	-52	38	-30
12401	-26	3	1932	-52	38	-30
12406	-31	1	1931	-47	-4	21
12411	-27	14	1914	-47	-4	21
12416	-22	11	1912	-47	-4	21
12421	-17	2	1930	-47	-4	21
12426	-26	2	1914	-47	-4	21
12431	-32	5	1918	-47	-4	21
12436	-27	14	1923	32	-16	74
12441	-25	-10	1937	32	-16	74
12446	-32	-2	1924	32	-16	74
12451	-23	8	1917	32	-16	74
12456	-22	8	1925	32	-16	74
12461	-29	3	1925	32	-16	74
12466	-29	-1	1918	74	-14	21
12471	-32	-2	1932	74	-14	21
12476	-31	-1	1918	74	-14	21
12481	-31	18	1914	74	-14	21
12486	-25	15	1922	74	-14	21
12491	-27	-8	1938	74	-14	21
12496	-32	9	1922	-50	11	27
12501	-36	31	1913	-50	11	27
12506	-32	30	1928	-50	11	27
12511	-70	-9	1694	-50	11	27
12516	-15	19	2002	-50	11	27
12521	-39	25	1893	-50	11	27
12526	-37	24	1912	-25	36	-60
12531	-42	20	1922	-25	36	-60
12536	-39	16	1904	-25	36	-60
12541	-56	28	1909	-25	36	-60
12546	-26	26	1915	-25	36	-60
12551	-13	30	1909	-25	36	-60
12556	-22	-4	1907	-25	36	-60
12561	-28	12	1913	-23	22	-16
12566	-32	25	1917	-23	22	-16
12571	-35	40	1921	-23	22	-16
12576	-30	10	1906	-23	22	-16
12581	-29	26	1933	-23	22	-16
12586	-27	20	1912	-23	22	-16
12591	-34	11	1914	-18	58	-95
12596	-24	25	1902	-18	58	-95
12601	-36	28	1920	-18	58	-95
12606	-29	17	1926	-18	58	-95
12611	-33	18	1917	-18	58	-95
12616	-30	27	1926	-18	58	-95
12621	-39	20	1918	-101	44	74
12626	-28	23	1903	-101	44	74
12631	-31	43	1913	-101	44	74
12636	-30	21	1886	-101	44	74
12641	-36	43	1928	-101	44	74
12646	-18	38	1964	-101	44	74
12651	-35	30	1903	-49	21	-109
12656	-24	28	1962	-49	21	-109
12661	-19	45	1954	-49	21	-109
12666	-25	24	1925	-49	21	-109
12671	-33	18	1927	-49	21	-109
12676	-29	10	1912	-49	21	-109
12681	-20	30	1943	-46	35	-4
12686	-24	16	1932	-46	35	-4
12691	-23	35	1912	-46	35	-4
12696	-36	35	1890	-46	35	-4
12701	-30	36	1899	-46	35	-4
12706	-31	29	1911	-46	35	-4
12711	-38	12	1916	-46	35	-4
12716	-35	22	1923	-4	9	-32
12721	-20	21	1913	-4	9	-32
12726	-28	26	1917	-4	9	-32
12731	-29	20	1903	-4	9	-32
12736	-26	27	1922	-4	9	-32
12741	-37	22	1917	-4	9	-32
12746	-25	36	1920	16	-15	44
12751	-24	22	1916	16	-15	44
12756	-34	13	1927	16	-15	44
12761	-32	31	1911	16	-15	44
12766	-29	5	1926	16	-15	44
12771	-37	33	1893	16	-15	44
12776	-37	21	1910	-66	36	90
12781	-33	44	1922	-66	36	90
12786	-34	38	1905	-66	36	90
12791	-50	35	1817	-66	36	90
12796	-2	36	2016	-66	36	90
12801	-20	46	1974	-66	36	90
12806	-28	26	1970	-49	18	50
12811	-40	25	1896	-49	18	50
12816	-27	24	1943	-49	18	50
12821	-29	25	1898	-49	18	50
12826	-27	22	1928	-49	18	50
12831	-31	9	1901	-49	18	50
12836	-29	24	1912	-56	-5	3
12841	-36	14	1923	-56	-5	3
12846	-35	18	1920	-56	-5	3
12851	-36	23	1921	-56	-5	3
12856	-31	38	1919	-56	-5	3
12861	-35	29	1915	-56	-5	3
12866	-28	23	1909	-56	-5	3
12871	-32	26	1914	-35	-12	-24
12876	-30	20	1913	-35	-12	-24
12881	-33	32	1914	-35	-12	-24
12886	-26	18	1903	-35	-12	-24
12891	-29	27	1946	-35	-12	-24
12896	-31	25	1901	-35	-12	-24
12901	-32	33	1912	-59	35	77
12906	-27	29	1927	-59	35	77
12911	-24	32	1915	-59	35	77
12916	-31	19	1932	-59	35	77
12921	-36	25	1927	-59	35	77
12926	-35	12	1929	-59	35	77
12931	-27	22	1903	-71	3	-93
12936	-31	26	1905	-71	3	-93
12941	-46	23	1848	-71	3	-93
12946	-23	34	1924	-71	3	-93
12951	-30	30	1911	-71	3	-93
12956	-31	34	1911	-71	3	-93
12961	-28	26	1914	-62	-35	192
12966	-31	32	1905	-62	-35	192
12971	-31	5	1961	-62	-35	192
12976	-32	0	1929	-62	-35	192
12981	-21	19	1934	-62	-35	192
12986	-30	25	1915	-62	-35	192
12991	-38	19	1903	-66	28	-85
12996	-26	29	1916	-66	28	-85
13001	-30	25	1934	-66	28	-85
13006	-34	41	1923	-66	28	-85
13011	-34	38	1903	-66	28	-85
13016	-31	30	1925	-66	28	-85
13021	-30	36	1918	-66	28	-85
13026	-31	27	1909	-15	-22	189
13031	-26	38	1934	-15	-22	189
13036	-43	20	1909	-15	-22	189
13041	-29	29	1924	-15	-22	189
13046	-34	36	1915	-15	-22	189
13051	-25	32	1924	-15	-22	189
13056	-38	22	1879	-35	14	12
13061	-18	33	1931	-35	14	12
13066	-25	32	1926	-35	14	12
13071	-29	26	1920	-35	14	12
13076	-38	30	1915	-35	14	12
13081	-28	28	1906	-35	14	12
13086	-27	37	1915	-16	-6	-11
13091	-29	25	1926	-16	-6	-11
13096	-31	26	1923	-16	-6	-11
13101	-27	42	1914	-16	-6	-11
13106	-30	46	1915	-16	-6	-11
13111	-25	25	1911	-16	-6	-11
13116	-37	23	1910	-20	4	30
13121	-27	26	1921	-20	4	30
13126	-28	19	1924	-20	4	30
13131	-23	28	1911	-20	4	30
13136	-37	27	1907	-20	4	30
13141	-23	30	1924	-20	4	30
13146	-23	31	1919	-24	15	-24
13151	-18	32	1936	-24	15	-24
13156	-34	24	1921	-24	15	-24
13161	-35	24	1919	-24	15	-24
13166	-25	26	1910	-24	15	-24
13171	-26	20	1918	-24	15	-24
13176	-28	17	1900	-24	15	-24
13181	-36	29	1930	-23	21	37
13186	-30	40	1940	-23	21	37
13191	-25	37	1921	-23	21	37
13196	-24	15	1919	-23	21	37
13201	-24	17	1926	-23	21	37
13206	-23	19	1906	-23	21	37
13211	-31	12	1923	-72	25	-87
13216	-31	28	1925	-72	25	-87
13221	-35	24	1905	-72	25	-87
13226	-33	37	1920	-72	25	-87
13231	-29	27	1913	-72	25	-87
13236	-23	23	1917	-72	25	-87
13241	-27	22	1908	-35	61	102
13246	-29	28	1917	-35	61	102
13251	-27	29	1925	-35	61	102
13256	-27	33	1928	-35	61	102
13261	-24	24	1919	-35	61	102
13266	-36	20	1925	-35	61	102
13271	-26	14	1931	-29	-22	-80
13276	-24	39	1922	-29	-22	-80
13281	-34	31	1921	-29	-22	-80
13286	-24	34	1906	-29	-22	-80
13291	-32	24	1909	-29	-22	-80
13296	-33	30	1905	-29	-22	-80
13301	-36	32	1916	-80	36	-16
13306	-35	22	1918	-80	36	-16
13311	-30	31	1914	-80	36	-16
13316	-28	33	1915	-80	36	-16
13321	-28	32	1914	-80	36	-16
13326	-29	31	1908	-80	36	-16
13331	-39	25	1935	-80	36	-16
13336	-29	24	1912	-59	46	-54
13341	-31	23	1917	-59	46	-54
13346	-30	31	1899	-59	46	-54
13351	-32	37	1922	-59	46	-54
13356	-32	18	1916	-59	46	-54
13361	-22	25	1915	-59	46	-54
13366	-35	32	1914	-23	29	-5
13371	-31	29	1917	-23	29	-5
13376	-30	24	1921	-23	29	-5
13381	-28	28	1920	-23	29	-5
13386	-31	16	1913	-23	29	-5
13391	-30	31	1920	-23	29	-5
13396	-30	30	1914	-1	9	-4
13401	-32	25	1911	-1	9	-4
13406	-35	33	1926	-1	9	-4
13411	-29	19	1919	-1	9	-4
13416	-31	28	1916	-1	9	-4
13421	-26	21	1920	-1	9	-4
13426	-22	33	1922	-38	29	-13
13431	-29	25	1925	-38	29	-13
13436	-30	15	1927	-38	29	-13
13441	-26	28	1919	-38	29	-13
13446	-34	27	1928	-38	29	-13
13451	-34	35	1931	-38	29	-13
13456	-31	28	1918	-36	5	-7
13461	-34	34	1913	-36	5	-7
13466	-26	23	1905	-36	5	-7
13471	-32	30	1922	-36	5	-7
13476	-35	22	1920	-36	5	-7
13481	-28	26	1926	-36	5	-7
13486	-26	23	1927	-36	5	-7
13491	-26	33	1931	-64	-12	-57
13496	-35	34	1897	-64	-12	-57
13501	-29	34	1919	-64	-12	-57
13506	-41	31	1923	-64	-12	-57
13511	-22	27	1905	-64	-12	-57
13516	-35	12	1918	-64	-12	-57
13521	-28	28	1920	-61	-9	21
13526	-26	19	1922	-61	-9	21
13531	-44	26	1928	-61	-9	21
13536	-36	33	1926	-61	-9	21
13541	-33	29	1914	-61	-9	21
13546	-26	32	1902	-61	-9	21
13551	-30	24	1936	-37	66	-98
13556	-25	23	1909	-37	66	-98
13561	-29	30	1921	-37	66	-98
13566	-29	25	1932	-37	66	-98
13571	-34	28	1916	-37	66	-98
13576	-32	26	1915	-37	66	-98
13581	-30	30	1918	-86	-12	106
13586	-29	32	1916	-86	-12	106
13591	-29	23	1926	-86	-12	106
13596	-36	34	1903	-86	-12	106
13601	-22	35	1911	-86	-12	106
13606	-27	26	1902	-86	-12	106
13611	-40	29	1921	-53	18	59
13616	-34	23	1912	-53	18	59
13621	-33	29	1910	-53	18	59
13626	-29	49	1924	-53	18	59
13631	-33	34	1908	-53	18	59
13636	-30	18	1927	-53	18	59
13641	-27	17	1910	-53	18	59
13646	-26	15	1912	-69	2	112
13651	-32	24	1896	-69	2	112
13656	-24	29	1919	-69	2	112
13661	-26	33	1912	-69	2	112
13666	-24	24	1915	-69	2	112
13671	-20	33	1933	-69	2	112
13676	-31	27	1921	-59	25	-49
13681	-26	18	1908	-59	25	-49
13686	-22	28	1912	-59	25	-49
13691	-38	19	1933	-59	25	-49
13696	-27	22	1919	-59	25	-49
13701	-36	15	1906	-59	25	-49
13706	-39	21	1912	-27	-31	27
13711	-37	19	1928	-27	-31	27
13716	-32	8	1912	-27	-31	27
13721	-27	-27	1984	-27	-31	27
13726	-36	15	1864	-27	-31	27
13731	-27	14	1952	-27	-31	27
13736	-32	17	1914	-20	14	-30
13741	-33	23	1933	-20	14	-30
13746	-28	26	1917	-20	14	-30
13751	-27	53	1907	-20	14	-30
13756	-22	15	1926	-20	14	-30
13761	-36	29	1895	-20	14	-30
13766	-26	39	1918	-92	-25	-7
13771	-27	20	1921	-92	-25	-7
13776	-28	24	1915	-92	-25	-7
13781	-31	12	1897	-92	-25	-7
13786	-26	25	1927	-92	-25	-7
13791	-35	30	1917	-92	-25	-7
13796	-39	31	1933	-92	-25	-7
13801	-34	24	1906	-28	22	47
13806	-23	25	1924	-28	22	47
13811	-26	20	1915	-28	22	47
13816	-28	9	1911	-28	22	47
13821	-26	33	1928	-28	22	47
13826	-30	18	1921	-28	22	47
13831	-29	25	1917	-75	35	-45
13836	-26	18	1921	-75	35	-45
13841	-30	19	1912	-75	35	-45
13846	-35	11	1916	-75	35	-45
13851	-29	7	1916	-75	35	-45
13856	-31	30	1920	-75	35	-45
13861	-32	22	1912	-95	76	2
13866	-31	32	1926	-95	76	2
13871	-30	23	1917	-95	76	2
13876	-30	3	1931	-95	76	2
13881	-33	12	1913	-95	76	2
13886	-28	14	1905	-95	76	2
13891	-26	24	1923	-44	16	-115
13896	-20	29	1910	-44	16	-115
13901	-30	24	1912	-44	16	-115
13906	-22	13	1916	-44	16	-115
13911	-37	15	1928	-44	16	-115
13916	-29	27	1912	-44	16	-115
13921	-29	28	1924	-33	45	-35
13926	-36	14	1903	-33	45	-35
13931	-26	16	1932	-33	45	-35
13936	-32	15	1911	-33	45	-35
13941	-35	17	1907	-33	45	-35
13946	-25	14	1924	-33	45	-35
13951	-34	26	1902	-33	45	-35
13956	-14	27	1924	-17	39	-118
13961	-33	23	1908	-17	39	-118
13966	-28	17	1927	-17	39	-118
13971	-29	24	1914	-17	39	-118
13976	-33	39	1922	-17	39	-118
13981	-23	16	1911	-17	39	-118
13986	-35	27	1930	-30	-6	68
13991	-25	26	1926	-30	-6	68
13996	-38	18	1910	-30	-6	68
14001	-30	22	1907	-30	-6	68
14006	-26	24	1911	-30	-6	68
14011	-30	22	1915	-30	-6	68
14016	-29	24	1913	-27	-11	-46
14021	-30	32	1894	-27	-11	-46
14026	-34	18	1937	-27	-11	-46
14031	-34	38	1927	-27	-11	-46
14036	-32	26	1903	-27	-11	-46
14041	-22	19	1906	-27	-11	-46
14046	-25	27	1914	-7	15	2
14051	-21	33	1929	-7	15	2
14056	-35	36	1926	-7	15	2
14061	-31	26	1918	-7	15	2
14066	-32	26	1910	-7	15	2
14071	-29	30	1917	-7	15	2
14076	-34	10	1921	-24	-9	12
14081	-39	13	1916	-24	-9	12
14086	-34	24	1929	-24	-9	12
14091	-34	19	1895	-24	-9	12
14096	-56	29	1772	-24	-9	12
14101	-41	9	1887	-24	-9	12
14106	-14	19	1946	-24	-9	12
14111	-26	26	1868	-31	-49	-24
14116	-42	34	1932	-31	-49	-24
14121	-35	37	1908	-31	-49	-24
14126	-27	23	1907	-31	-49	-24
14131	-33	17	1941	-31	-49	-24
14136	-39	19	1912	-31	-49	-24
14141	-36	15	1925	-177	55	-7
14146	-41	9	1888	-177	55	-7
14151	-27	12	1926	-177	55	-7
14156	-30	31	1930	-177	55	-7
14161	-44	11	1898	-177	55	-7
14166	-60	24	1894	-177	55	-7
14171	-25	26	1921	-128	-1	-77
14176	-32	23	1911	-128	-1	-77
14181	-18	24	1924	-128	-1	-77
14186	-16	30	1919	-128	-1	-77
14191	-24	29	1909	-128	-1	-77
14196	-23	10	1927	-128	-1	-77
14201	-37	6	1921	-49	14	-10
14206	-31	-11	1915	-49	14	-10
14211	-28	-30	1894	-49	14	-10
14216	-23	12	1908	-49	14	-10
14221	-29	11	1935	-49	14	-10
14226	-30	9	1916	-49	14	-10
14231	-29	12	1916	-2	34	-140
14236	-21	6	1915	-2	34	-140
14241	-31	16	1920	-2	34	-140
14246	-33	6	1908	-2	34	-140
14251	-32	1	1920	-2	34	-140
14256	-29	-11	1915	-2	34	-140
14261	-34	-4	1924	-2	34	-140
14266	-30	-1	1926	-51	-31	56
14271	-24	17	1913	-51	-31	56
14276	-25	16	1905	-51	-31	56
14281	10	11	1909	-51	-31	56
14286	-12	24	1918	-51	-31	56
14291	-20	15	1914	-51	-31	56
14296	-21	5	1929	-54	-2	-115
14301	-38	-2	1913	-54	-2	-115
14306	-43	-5	1917	-54	-2	-115
14311	-43	2	1916	-54	-2	-115
14316	-26	2	1908	-54	-2	-115
14321	-35	3	1907	-54	-2	-115
14326	-29	-3	1915	-49	-24	61
14331	-24	1	1927	-49	-24	61
14336	-34	-6	1910	-49	-24	61
14341	-32	-8	1916	-49	-24	61
14346	-37	-1	1914	-49	-24	61
14351	-28	-1	1926	-49	-24	61
14356	-34	6	1906	-53	-39	-22
14361	-26	2	1924	-53	-39	-22
14366	-27	-10	1917	-53	-39	-22
14371	-25	2	1912	-53	-39	-22
14376	-28	-2	1906	-53	-39	-22
14381	-28	4	1910	-53	-39	-22
14386	-29	7	1919	-40	-26	-10
14391	-19	1	1929	-40	-26	-10
14396	-39	3	1928	-40	-26	-10
14401	-32	-18	1927	-40	-26	-10
14406	-29	-6	1915	-40	-26	-10
14411	-28	14	1904	-40	-26	-10
14416	-25	12	1917	-40	-26	-10
14421	-39	3	1910	-3	-32	56
14426	-31	-6	1905	-3	-32	56
14431	-26	-1	1906	-3	-32	56
14436	-28	-1	1908	-3	-32	56
14441	-29	-11	1908	-3	-32	56
14446	-24	-4	1894	-3	-32	56
14451	-24	4	1900	-43	2	-13
14456	-21	6	1927	-43	2	-13
14461	-26	9	1913	-43	2	-13
14466	-15	1	1908	-43	2	-13
14471	-31	-8	1918	-43	2	-13
14476	-28	-12	1912	-43	2	-13
14481	-27	-3	1912	-60	21	-19
14486	-28	-6	1924	-60	21	-19
14491	-26	11	1924	-60	21	-19
14496	-25	4	1915	-60	21	-19
14501	-23	-3	1921	-60	21	-19
14506	-30	-3	1920	-60	21	-19
14511	-22	2	1937	-50	34	-83
14516	-29	9	1919	-50	34	-83
14521	-27	1	1924	-50	34	-83
14526	-26	6	1903	-50	34	-83
14531	-22	16	1913	-50	34	-83
14536	-26	-2	1910	-50	34	-83
14541	-34	0	1927	6	-62	25
14546	-30	-1	1909	6	-62	25
14551	-37	2	1911	6	-62	25
14556	-37	0	1919	6	-62	25
14561	-25	8	1917	6	-62	25
14566	-28	3	1916	6	-62	25
14571	-24	1	1935	6	-62	25
14576	-31	0	1910	-67	46	-121
14581	-18	1	1898	-67	46	-121
14586	-28	4	1902	-67	46	-121
14591	-27	-8	1926	-67	46	-121
14596	-24	-4	1923	-67	46	-121
14601	-17	3	1929	-67	46	-121
14606	-32	-7	1924	-34	19	119
14611	-30	-1	1930	-34	19	119
14616	-28	0	1927	-34	19	119
14621	-23	1	1920	-34	19	119
14626	-24	5	1931	-34	19	119
14631	-21	4	1910	-34	19	119
14636	-29	-3	1915	-36	-5	-99
14641	-35	-6	1911	-36	-5	-99
14646	-27	3	1908	-36	-5	-99
14651	-38	3	1920	-36	-5	-99
14656	-20	-10	1921	-36	-5	-99
14661	-28	-7	1921	-36	-5	-99
14666	-32	-4	1917	-35	-1	78
14671	-25	0	1915	-35	-1	78
14676	-34	0	1913	-35	-1	78
14681	-21	-3	1908	-35	-1	78
14686	-30	5	1933	-35	-1	78
14691	-27	0	1918	-35	-1	78
14696	-19	-4	1916	-47	-16	-11
14701	-24	3	1916	-47	-16	-11
14706	-28	-4	1914	-47	-16	-11
14711	-28	5	1904	-47	-16	-11
14716	-24	5	1928	-47	-16	-11
14721	-32	4	1939	-47	-16	-11
14726	-21	-3	1908	-47	-16	-11
14731	-27	5	1913	-11	-35	-17
14736	-25	5	1918	-11	-35	-17
14741	-29	1	1907	-11	-35	-17
14746	-19	7	1909	-11	-35	-17
14751	-30	0	1922	-11	-35	-17
14756	-15	3	1917	-11	-35	-17
14761	-34	6	1914	-36	-61	-60
14766	-32	6	1923	-36	-61	-60
14771	-32	6	1908	-36	-61	-60
14776	-31	-3	1921	-36	-61	-60
14781	-33	0	1904	-36	-61	-60
14786	-21	3	1913	-36	-61	-60
14791	-26	-6	1922	-51	19	-48
14796	-27	-8	1925	-51	19	-48
14801	-30	-1	1933	-51	19	-48
14806	-33	0	1913	-51	19	-48
14811	-34	0	1909	-51	19	-48
14816	-37	5	1920	-51	19	-48
14821	-22	12	1916	-68	4	8
14826	-29	2	1918	-68	4	8
14831	-38	4	1921	-68	4	8
14836	-28	-7	1901	-68	4	8
14841	-33	-6	1909	-68	4	8
14846	-39	-9	1923	-68	4	8
14851	-25	2	1920	-4	12	-74
14856	-26	2	1923	-4	12	-74
14861	-26	1	1926	-4	12	-74
14866	-35	10	1913	-4	12	-74
14871	-22	-1	1923	-4	12	-74
14876	-19	3	1913	-4	12	-74
14881	-22	-15	1916	-4	12	-74
14886	-29	1	1917	-34	52	74
14891	-32	-11	1906	-34	52	74
14896	-26	7	1912	-34	52	74
14901	-26	13	1899	-34	52	74
14906	-18	6	1911	-34	52	74
14911	-29	1	1911	-34	52	74
14916	-29	3	1927	-45	51	-149
14921	-28	5	1917	-45	51	-149
14926	-28	-5	1933	-45	51	-149
14931	-23	2	1908	-45	51	-149
14936	-25	8	1915	-45	51	-149
14941	-28	7	1922	-45	51	-149
14946	-34	4	1915	-32	2	78
14951	-18	15	1895	-32	2	78
14956	-26	-6	1927	-32	2	78
14961	-36	11	1927	-32	2	78
14966	-20	1	1917	-32	2	78
14971	-29	-6	1911	-32	2	78
14976	-33	-3	1902	-71	-56	-96
14981	-24	-9	1922	-71	-56	-96
14986	-32	3	1907	-71	-56	-96
14991	-26	7	1908	-71	-56	-96
14996	-29	-9	1909	-71	-56	-96
15001	-29	3	1927	-71	-56	-96
15006	-33	1	1920	1	22	63
15011	-33	-7	1912	1	22	63
15016	-24	-1	1918	1	22	63
15021	-28	12	1909	1	22	63
15026	-25	2	1919	1	22	63
15031	-29	1	1916	1	22	63
15036	-25	7	1924	1	22	63
15041	-22	8	1907	-20	-25	12
15046	-28	-1	1910	-20	-25	12
15051	-27	9	1911	-20	-25	12
15056	-19	5	1912	-20	-25	12
15061	-31	7	1909	-20	-25	12
15066	-31	22	1906	-20	-25	12
15071	-26	-1	1919	-70	-4	-20
15076	-30	10	1906	-70	-4	-20
15081	-26	12	1909	-70	-4	-20
15086	-32	12	1909	-70	-4	-20
15091	-28	5	1909	-70	-4	-20
15096	-36	3	1908	-70	-4	-20
15101	-24	5	1932	-83	49	-71
15106	-25	6	1924	-83	49	-71
15111	-33	-2	1915	-83	49	-71
15116	-32	12	1912	-83	49	-71
15121	-30	4	1905	-83	49	-71
15126	-30	9	1909	-83	49	-71
15131	-34	9	1909	-112	44	-2
15136	-26	7	1917	-112	44	-2
15141	-31	13	1928	-112	44	-2
15146	-33	4	1921	-112	44	-2
15151	-38	15	1917	-112	44	-2
15156	-33	13	1906	-112	44	-2
15161	-29	4	1910	-54	-1	-7
15166	-27	4	1921	-54	-1	-7
15171	-34	-13	1922	-54	-1	-7
15176	-33	-10	1914	-54	-1	-7
15181	-22	-3	1921	-54	-1	-7
15186	-25	-2	1906	-54	-1	-7
15191	-28	12	1910	-54	-1	-7
15196	-29	-9	1913	-21	61	-98
15201	-29	-5	1914	-21	61	-98
15206	-24	-4	1906	-21	61	-98
15211	-22	2	1902	-21	61	-98
15216	-20	2	1919	-21	61	-98
15221	-25	14	1913	-21	61	-98
15226	-24	7	1910	-156	-202	-73
15231	-31	0	1929	-156	-202	-73
15236	-32	13	1897	-156	-202	-73
1916	-2016	453	79	-156	-202	-73
13921	-1999	480	92	-156	-202	-73
13926	-1997	465	106	-156	-202	-73
13931	-1991	459	107	-156	-202	-73
13936	-1992	445	92	-156	-202	-73
13941	-1993	447	105	-156	-202	-73
13946	-1980	416	114	-156	-202	-73
13951	-1981	385	117	-156	-202	-73
13956	-1966	417	118	-156	-202	-73
13961	-1974	462	143	-156	-202	-73
13966	-1981	453	87	-156	-202	-73
13971	-1975	465	78	-156	-202	-73
13976	-1983	475	123	-156	-202	-73
13981	-1980	423	144	-156	-202	-73
13986	-1977	439	118	-156	-202	-73
13991	-1972	461	61	-156	-202	-73
13996	-2027	436	90	-156	-202	-73
14001	-2072	414	84	-156	-202	-73
14006	-2027	388	85	-156	-202	-73
14011	-1979	373	124	-156	-202	-73
14016	-2010	366	99	-156	-202	-73
14021	-1952	424	119	-156	-202	-73
14026	-1972	529	94	-156	-202	-73
14031	-1991	587	86	-156	-202	-73
14036	-1994	558	159	-156	-202	-73
14041	-1963	520	183	-156	-202	-73
14046	-1946	365	212	-156	-202	-73
14051	-1890	340	163	-156	-202	-73
14056	-1919	379	131	-156	-202	-73
14061	-1899	385	159	-156	-202	-73
14066	-1856	315	195	-156	-202	-73
14071	-1877	363	186	-156	-202	-73
14076	-1907	444	158	-156	-202	-73
14081	-1958	549	57	-156	-202	-73
14086	-2048	652	27	-156	-202	-73
14091	-2048	648	14	-156	-202	-73
14096	-2077	618	26	-156	-202	-73
14101	-2027	594	50	-156	-202	-73
14106	-2023	597	15	-156	-202	-73
14111	-1987	563	7	-156	-202	-73
14116	-1994	526	-43	-156	-202	-73
14121	-2015	515	-103	-156	-202	-73
14126	-2010	507	-18	-156	-202	-73
14131	-2039	544	45	-156	-202	-73
14136	-1996	518	54	-156	-202	-73
14141	-1992	531	21	-156	-202	-73
14146	-1982	539	22	-156	-202	-73
14151	-2066	556	34	-156	-202	-73
14156	-2014	571	43	-156	-202	-73
14161	-1995	580	106	-156	-202	-73
14166	-1967	552	107	-156	-202	-73
14171	-2007	487	90	-156	-202	-73
14176	-1982	500	52	-156	-202	-73
14181	-2039	544	41	-156	-202	-73
14186	-1934	818	-158	-156	-202	-73
14191	-2104	526	277	-156	-202	-73
14196	-1899	561	121	-156	-202	-73
14201	-1938	556	141	-156	-202	-73
14206	-1973	523	198	-156	-202	-73
14211	-2036	575	154	-156	-202	-73
14216	-2024	629	96	-156	-202	-73
14221	-2045	623	109	-156	-202	-73
14226	-2058	628	117	-156	-202	-73
14231	-2102	651	114	-156	-202	-73
14236	-2161	696	49	-156	-202	-73
14241	-2247	751	70	-156	-202	-73
14246	-2172	705	163	-156	-202	-73
14251	-2135	640	203	-156	-202	-73
14256	-2151	644	203	-156	-202	-73
14261	-2165	493	75	-156	-202	-73
14266	-2202	350	-215	-156	-202	-73
14271	-2022	117	-342	-156	-202	-73
14276	-1924	46	-259	-156	-202	-73
14281	-1946	222	-45	-156	-202	-73
14286	-1964	352	167	-156	-202	-73
14291	-1922	483	176	-156	-202	-73
14296	-1900	565	103	-156	-202	-73
14301	-1924	641	116	-156	-202	-73
14306	-1900	647	54	-156	-202	-73
14311	-1882	644	2	-156	-202	-73
14316	-1887	638	6	-156	-202	-73
14321	-1854	582	16	-156	-202	-73
14326	-1786	497	76	-156	-202	-73
14331	-1720	397	85	-156	-202	-73
14336	-1656	363	113	-156	-202	-73
14341	-1586	400	78	-156	-202	-73
14346	-1570	389	2	-156	-202	-73
14351	-1611	410	55	-156	-202	-73
14356	-1724	381	96	-156	-202	-73
14361	-1786	406	86	-156	-202	-73
14366	-1842	403	12	-156	-202	-73
14371	-1903	414	-22	-156	-202	-73
14376	-2063	525	-103	-156	-202	-73
14381	-2192	558	-113	-156	-202	-73
14386	-2257	575	-132	-156	-202	-73
14391	-2324	662	-129	-156	-202	-73
14396	-2345	723	-86	-156	-202	-73
14401	-2341	627	-75	-156	-202	-73
14406	-2221	532	-74	-156	-202	-73
14411	-2157	491	-40	-156	-202	-73
14416	-2090	461	-19	-156	-202	-73
14421	-1974	454	-51	-156	-202	-73
14426	-1955	473	-35	-156	-202	-73
14431	-1938	497	9	-156	-202	-73
14436	-1918	457	-11	-156	-202	-73
14441	-1901	476	-60	-156	-202	-73
14446	-1902	549	-95	-156	-202	-73
14451	-1937	528	-91	-156	-202	-73
14456	-1928	532	-177	-156	-202	-73
14461	-1948	519	-311	-156	-202	-73
14466	-1987	512	-366	-156	-202	-73
14471	-2067	600	-227	-156	-202	-73
14476	-2037	691	-220	-156	-202	-73
14481	-2029	648	-286	-156	-202	-73
14486	-2046	639	-279	-156	-202	-73
14491	-2069	676	-241	-156	-202	-73
14496	-2085	684	-134	-156	-202	-73
14501	-2020	637	-22	-156	-202	-73
14506	-1975	582	46	-156	-202	-73
14511	-1912	503	84	-156	-202	-73
14516	-1819	478	56	-156	-202	-73
14521	-1853	500	-75	-156	-202	-73
14526	-1848	545	-151	-156	-202	-73
14531	-1882	597	-139	-156	-202	-73
14536	-2166	-38	-858	-156	-202	-73
14541	-1899	575	-253	-156	-202	-73
14546	-1973	550	-90	-156	-202	-73
14551	-2053	563	1	-156	-202	-73
14556	-2064	639	35	-156	-202	-73
14561	-2137	589	9	-156	-202	-73
14566	-2078	577	-119	-156	-202	-73
14571	-2091	690	-291	-156	-202	-73
14576	-2055	642	-179	-156	-202	-73
14581	-1991	498	-60	-156	-202	-73
14586	-1863	320	-170	-156	-202	-73
14591	-1894	568	-372	-156	-202	-73
14596	-1934	675	-436	-156	-202	-73
14601	-1930	630	-359	-156	-202	-73
14606	-1870	528	-69	-156	-202	-73
14611	-1932	574	83	-156	-202	-73
14616	-2011	633	44	-156	-202	-73
14621	-1986	583	-147	-156	-202	-73
14626	-2019	599	-130	-156	-202	-73
14631	-2008	559	-48	-156	-202	-73
14636	-1973	591	-119	-156	-202	-73
14641	-1991	736	-32	-156	-202	-73
14646	-2028	784	53	-156	-202	-73
14651	-2017	709	8	-156	-202	-73
14656	-1960	658	16	-156	-202	-73
14661	-1950	629	19	-156	-202	-73
14666	-1945	582	-29	-156	-202	-73
14671	-1937	594	-101	-156	-202	-73
14676	-1968	611	-148	-156	-202	-73
14681	-1939	628	-129	-156	-202	-73
14686	-1930	630	-69	-156	-202	-73
14691	-1979	666	-27	-156	-202	-73
14696	-1969	737	-112	-156	-202	-73
14701	-2001	752	-157	-156	-202	-73
14706	-1995	760	-223	-156	-202	-73
14711	-1974	683	-298	-156	-202	-73
14716	-1949	621	-92	-156	-202	-73
14721	-1894	563	-85	-156	-202	-73
14726	-1939	530	-122	-156	-202	-73
14731	-1915	567	-78	-156	-202	-73
14736	-1917	583	-279	-156	-202	-73
14741	-1925	717	-238	-156	-202	-73
14746	-1973	811	-124	-156	-202	-73
14751	-1985	813	-179	-156	-202	-73
14756	-1960	856	-68	-156	-202	-73
14761	-2045	761	-59	-156	-202	-73
14766	-2023	778	2	-156	-202	-73
14771	-1952	703	36	-156	-202	-73
14776	-1932	652	38	-156	-202	-73
14781	-1896	611	-14	-156	-202	-73
14786	-1903	624	-31	-156	-202	-73
14791	-1927	599	-60	-156	-202	-73
14796	-1914	582	-165	-156	-202	-73
14801	-1923	616	-191	-156	-202	-73
14806	-1902	550	-170	-156	-202	-73
14811	-1891	511	-146	-156	-202	-73
14816	-1878	560	-88	-156	-202	-73
14821	-1867	604	-33	-156	-202	-73
14826	-1885	634	-2	-156	-202	-73
14831	-1923	659	73	-156	-202	-73
14836	-1899	660	90	-156	-202	-73
14841	-1920	733	-27	-156	-202	-73
14846	-1990	833	-225	-156	-202	-73
14851	-2002	778	-325	-156	-202	-73
14856	-1983	704	-208	-156	-202	-73
14861	-2016	770	-256	-156	-202	-73
14866	-2025	801	-414	-156	-202	-73
14871	-2053	767	-251	-156	-202	-73
14876	-2026	738	-99	-156	-202	-73
14881	-1960	687	-139	-156	-202	-73
14886	-1930	658	-113	-156	-202	-73
14891	-1915	635	-27	-156	-202	-73
14896	-1915	640	-83	-156	-202	-73
14901	-2020	562	-135	-156	-202	-73
14906	-1826	732	-368	-156	-202	-73
14911	-2017	696	-60	-156	-202	-73
14916	-1972	734	-159	-156	-202	-73
14921	-1933	749	-235	-156	-202	-73
14926	-1954	666	-352	-156	-202	-73
14931	-1895	696	-304	-156	-202	-73
14936	-1940	675	-342	-156	-202	-73
14941	-1922	675	-310	-156	-202	-73
14946	-1932	693	-268	-156	-202	-73
14951	-1944	709	-199	-156	-202	-73
14956	-1939	657	-200	-156	-202	-73
14961	-1976	643	-203	-156	-202	-73
14966	-1969	741	-198	-156	-202	-73
14971	-1996	732	-163	-156	-202	-73
14976	-1973	645	-311	-156	-202	-73
14981	-1953	622	-373	-156	-202	-73
14986	-1945	601	-337	-156	-202	-73
14991	-1928	658	-313	-156	-202	-73
14996	-1921	698	-350	-156	-202	-73
15001	-1930	735	-336	-156	-202	-73
15006	-1931	720	-299	-156	-202	-73
15011	-1914	699	-240	-156	-202	-73
15016	-1892	670	-112	-156	-202	-73
15021	-1900	673	-89	-156	-202	-73
15026	-1915	698	-132	-156	-202	-73
15031	-1894	686	-232	-156	-202	-73
15036	-1894	662	-260	-156	-202	-73
15041	-1909	645	-264	-156	-202	-73
15046	-1931	666	-182	-156	-202	-73
15051	-1975	618	-318	-156	-202	-73
15056	-1940	640	-378	-156	-202	-73
15061	-1952	648	-201	-156	-202	-73
15066	-1983	658	-146	-156	-202	-73
15071	-1963	722	-107	-156	-202	-73
15076	-1966	727	-143	-156	-202	-73
15081	-1963	731	-117	-156	-202	-73
15086	-1927	717	-113	-156	-202	-73
15091	-1897	676	-142	-156	-202	-73
15096	-1897	653	-101	-156	-202	-73
15101	-1906	641	-191	-156	-202	-73
15106	-1909	655	-254	-156	-202	-73
15111	-1916	690	-289	-156	-202	-73
15116	-1958	721	-276	-156	-202	-73
15121	-1946	762	-209	-156	-202	-73
15126	-1997	741	-165	-156	-202	-73
15131	-2011	758	-176	-156	-202	-73
15136	-1997	798	-151	-156	-202	-73
15141	-1997	747	-155	-156	-202	-73
15146	-1954	684	-128	-156	-202	-73
15151	-1940	627	-161	-156	-202	-73
15156	-1915	590	-125	-156	-202	-73
15161	-1855	651	-182	-156	-202	-73
15166	-1867	676	-241	-156	-202	-73
15171	-1862	695	-83	-156	-202	-73
15176	-1886	753	-158	-156	-202	-73
15181	-1922	807	-95	-156	-202	-73
15186	-1931	824	-87	-156	-202	-73
15191	-1960	814	-178	-156	-202	-73
15196	-1957	763	-277	-156	-202	-73
15201	-2008	704	-297	-156	-202	-73
15206	-1986	678	-279	-156	-202	-73
15211	-1960	701	-223	-156	-202	-73
15216	-1950	765	-170	-156	-202	-73
15221	-1934	803	18	-156	-202	-73
15226	-1910	865	133	-156	-202	-73
15231	-1882	804	274	-156	-202	-73
15236	-1912	745	-3	-156	-202	-73
15241	-1862	711	-26	-156	-202	-73
15246	-1867	717	-42	-156	-202	-73
15251	-1884	713	-118	-156	-202	-73
15256	-1885	704	-95	-248	-212	43
15261	-1895	730	-40	-248	-212	43
15266	-1919	784	-130	-248	-212	43
15271	-1934	788	-233	-248	-212	43
15276	-1948	766	-93	-248	-212	43
15281	-1916	747	115	-248	-212	43
15286	-1924	729	-29	-66	-180	55
15291	-1914	769	32	-66	-180	55
15296	-1936	762	-11	-66	-180	55
15301	-1895	733	-5	-66	-180	55
15306	-1880	719	38	-66	-180	55
15311	-1920	744	68	-66	-180	55
15316	-1903	767	98	-154	-157	19
15321	-1905	800	84	-154	-157	19
15326	-1903	866	70	-154	-157	19
15331	-1928	727	42	-154	-157	19
15336	-1909	756	-24	-154	-157	19
15341	-1882	749	19	-154	-157	19
15346	-1902	743	38	-154	-157	19
15351	-1891	736	10	-13	-122	84
15356	-1888	748	50	-13	-122	84
15361	-1872	753	91	-13	-122	84
15366	-1857	752	97	-13	-122	84
15371	-1868	759	129	-13	-122	84
15376	-1860	778	101	-13	-122	84
15381	-1874	758	95	14	-567	-20
15386	-1904	773	92	14	-567	-20
15391	-1932	828	40	14	-567	-20
15396	-1946	843	61	14	-567	-20
15401	-1940	835	3	14	-567	-20
15406	-1921	815	273	14	-567	-20
15411	-1927	811	210	23	27	-36
15416	-1913	795	243	23	27	-36
15421	-1901	798	202	23	27	-36
15426	-1903	796	172	23	27	-36
15431	-1886	792	165	23	27	-36
15436	-1884	762	148	23	27	-36
15441	-1869	738	94	32	79	-36
15446	-1856	740	165	32	79	-36
15451	-1861	709	169	32	79	-36
15456	-1864	761	122	32	79	-36
15461	-1848	775	150	32	79	-36
15466	-1862	745	150	32	79	-36
15471	-1890	788	110	19	53	15
15476	-1926	809	108	19	53	15
15481	-1935	832	26	19	53	15
15486	-1953	861	19	19	53	15
15491	-1952	861	19	19	53	15
15496	-1950	863	46	19	53	15
15501	-1935	851	86	19	53	15
15506	-1911	809	130	174	-43	-90
15511	-1894	783	165	174	-43	-90
15516	-1871	752	158	174	-43	-90
15521	-1863	775	149	174	-43	-90
15526	-1870	772	152	174	-43	-90
15531	-1843	731	132	174	-43	-90
15536	-1848	738	133	-55	-108	-4
15541	-1867	783	89	-55	-108	-4
15546	-1891	812	64	-55	-108	-4
15551	-1915	823	48	-55	-108	-4
15556	-1892	824	-16	-55	-108	-4
15561	-1864	853	196	-55	-108	-4
15566	-2000	725	217	-29	-182	3
15571	-1865	805	167	-29	-182	3
15576	-1877	803	156	-29	-182	3
15581	-1895	743	123	-29	-182	3
15586	-1854	749	22	-29	-182	3
15591	-1843	755	14	-29	-182	3
15596	-1881	789	88	-17	-3	-1
15601	-1917	821	128	-17	-3	-1
15606	-1914	820	126	-17	-3	-1
15611	-1921	795	128	-17	-3	-1
15616	-1896	767	140	-17	-3	-1
15621	-1897	798	146	-17	-3	-1
15626	-1901	797	172	-50	-58	41
15631	-1888	799	166	-50	-58	41
15636	-1866	780	163	-50	-58	41
15641	-1878	760	136	-50	-58	41
15646	-1880	766	100	-50	-58	41
15651	-1883	760	142	-50	-58	41
15656	-1897	768	156	-50	-58	41
15661	-1902	814	133	38	-124	-46
15666	-1907	688	82	38	-124	-46
15671	-1878	775	176	38	-124	-46
15676	-1903	789	189	38	-124	-46
15681	-1897	777	159	38	-124	-46
15686	-1884	778	137	38	-124	-46
15691	-1883	794	100	-3	-8	-49
15696	-1898	796	88	-3	-8	-49
15701	-1896	748	126	-3	-8	-49
15706	-1859	769	168	-3	-8	-49
15711	-1896	762	149	-3	-8	-49
15716	-1900	762	169	-3	-8	-49
15721	-1875	747	176	104	-7	-89
15726	-1873	723	169	104	-7	-89
15731	-1879	755	164	104	-7	-89
15736	-1873	768	105	104	-7	-89
15741	-1884	768	95	104	-7	-89
15746	-1895	790	110	104	-7	-89
15751	-1869	745	145	114	159	-27
15756	-1888	775	136	114	159	-27
15761	-1874	798	149	114	159	-27
15766	-1884	785	157	114	159	-27
15771	-1872	741	207	114	159	-27
15776	-1867	746	244	114	159	-27
15781	-1847	678	182	56	-141	18
15786	-1860	694	146	56	-141	18
15791	-1870	732	136	56	-141	18
15796	-1880	788	117	56	-141	18
15801	-1962	847	70	56	-141	18
15806	-2002	831	48	56	-141	18
15811	-1889	732	51	56	-141	18
15816	-1942	795	70	60	77	-93
15821	-1925	825	97	60	77	-93
15826	-1943	775	146	60	77	-93
15831	-1919	760	244	60	77	-93
15836	-1878	756	234	60	77	-93
15841	-1884	767	198	60	77	-93
15846	-1850	758	125	-23	-8	-145
15851	-1863	771	66	-23	-8	-145
15856	-1855	747	91	-23	-8	-145
15861	-1838	736	147	-23	-8	-145
15866	-1904	762	197	-23	-8	-145
15871	-1913	765	175	-23	-8	-145
15876	-1887	755	166	45	9	49
15881	-1871	739	158	45	9	49
15886	-1877	747	165	45	9	49
15891	-1887	748	125	45	9	49
15896	-1848	729	97	45	9	49
15901	-1898	782	91	45	9	49
15906	-1925	784	86	5	14	-46
15911	-1921	758	103	5	14	-46
15916	-1940	776	84	5	14	-46
15921	-1955	779	102	5	14	-46
15926	-1969	782	115	5	14	-46
15931	-1954	774	145	5	14	-46
15936	-1968	790	120	77	46	-82
15941	-1948	787	74	77	46	-82
15946	-1949	774	35	77	46	-82
15951	-1942	735	57	77	46	-82
15956	-1929	711	76	77	46	-82
15961	-1925	709	144	77	46	-82
15966	-1885	687	179	77	46	-82
15971	-1817	698	189	-124	-47	-93
15976	-1855	709	224	-124	-47	-93
15981	-1873	736	235	-124	-47	-93
15986	-1851	743	181	-124	-47	-93
15991	-1935	783	80	-124	-47	-93
15996	-1950	803	55	-124	-47	-93
16001	-1955	771	25	-50	4	-52
16006	-1985	769	15	-50	4	-52
16011	-1940	759	83	-50	4	-52
16016	-1897	718	147	-50	4	-52
16021	-1858	709	151	-50	4	-52
16026	-1805	690	152	-50	4	-52
16031	-1802	679	197	-102	36	74
16036	-1802	686	189	-102	36	74
16041	-1848	714	166	-102	36	74
16046	-1900	755	105	-102	36	74
16051	-1936	756	75	-102	36	74
16056	-1961	754	65	-102	36	74
16061	-1944	775	32	12	40	-74
16066	-1957	777	24	12	40	-74
16071	-1952	753	102	12	40	-74
16076	-1916	736	136	12	40	-74
16081	-1900	745	114	12	40	-74
16086	-1932	778	142	12	40	-74
16091	-1882	731	160	-58	-50	5
16096	-1913	766	115	-58	-50	5
16101	-1927	776	78	-58	-50	5
16106	-1939	774	93	-58	-50	5
16111	-1929	754	116	-58	-50	5
16116	-1936	763	95	-58	-50	5
16121	-1927	749	101	-58	-50	5
16126	-1914	731	136	15	-13	-136
16131	-1898	726	164	15	-13	-136
16136	-1885	703	165	15	-13	-136
16141	-1883	737	155	15	-13	-136
16146	-1898	755	118	15	-13	-136
16151	-1929	773	109	15	-13	-136
16156	-1949	785	107	-53	-37	2
16161	-1938	781	94	-53	-37	2
16166	-1944	759	100	-53	-37	2
16171	-1936	749	131	-53	-37	2
16176	-1907	750	139	-53	-37	2
16181	-1883	740	133	-53	-37	2
16186	-1871	740	130	-27	-81	5
16191	-1894	755	103	-27	-81	5
16196	-1885	761	82	-27	-81	5
16201	-1915	750	104	-27	-81	5
16206	-1905	753	137	-27	-81	5
16211	-1909	756	119	-27	-81	5
16216	-1901	713	131	-99	-11	-46
16221	-1888	729	143	-99	-11	-46
16226	-1886	728	167	-99	-11	-46
16231	-1896	730	149	-99	-11	-46
16236	-1895	734	156	-99	-11	-46
16241	-1902	723	144	-99	-11	-46
16246	-1916	737	132	-40	-27	-17
16251	-1923	743	122	-40	-27	-17
16256	-1919	747	120	-40	-27	-17
16261	-1918	753	127	-40	-27	-17
16266	-1902	768	140	-40	-27	-17
16271	-1918	772	140	-40	-27	-17
16276	-1909	786	149	-40	-27	-17
16281	-1886	744	157	-86	-11	-20
16286	-1892	732	162	-86	-11	-20
16291	-1903	733	154	-86	-11	-20
16296	-1909	725	164	-86	-11	-20
16301	-1909	713	156	-86	-11	-20
16306	-1900	728	155	-86	-11	-20
16311	-1913	719	144	-31	22	-48
16316	-1925	728	162	-31	22	-48
16321	-1923	715	156	-31	22	-48
16326	-1919	717	148	-31	22	-48
16331	-1908	747	157	-31	22	-48
16336	-1895	762	128	-31	22	-48
16341	-1905	760	142	-24	14	-60
16346	-1867	731	158	-24	14	-60
16351	-1865	731	155	-24	14	-60
16356	-1863	727	144	-24	14	-60
16361	-1885	727	142	-24	14	-60
16366	-1905	742	130	-24	14	-60
16371	-1932	741	117	-11	-8	58
16376	-1953	744	99	-11	-8	58
16381	-1959	739	130	-11	-8	58
16386	-1939	733	141	-11	-8	58
16391	-1945	743	148	-11	-8	58
16396	-1909	741	146	-11	-8	58
16401	-1895	728	163	-104	3	11
16406	-1890	741	142	-104	3	11
16411	-1897	742	146	-104	3	11
16416	-1891	736	153	-104	3	11
16421	-1892	719	173	-104	3	11
16426	-1880	724	178	-104	3	11
16431	-1893	724	179	-104	3	11
16436	-1889	734	185	-16	-31	47
16441	-1894	719	167	-16	-31	47
16446	-1907	741	138	-16	-31	47
16451	-1915	750	125	-16	-31	47
16456	-1922	742	138	-16	-31	47
16461	-1931	741	127	-16	-31	47
16466	-1919	743	139	-43	-61	-11
16471	-1921	739	159	-43	-61	-11
16476	-1910	732	162	-43	-61	-11
16481	-1911	747	145	-43	-61	-11
16486	-1923	747	150	-43	-61	-11
16491	-1908	742	138	-43	-61	-11
16496	-1911	721	133	-17	33	-32
16501	-1916	715	157	-17	33	-32
16506	-1903	709	161	-17	33	-32
16511	-1904	717	151	-17	33	-32
16516	-1913	720	152	-17	33	-32
16521	-1903	737	139	-17	33	-32
16526	-1903	749	144	-26	-55	-19
16531	-1895	762	137	-26	-55	-19
16536	-1894	762	141	-26	-55	-19
16541	-1890	756	146	-26	-55	-19
16546	-1890	740	158	-26	-55	-19
16551	-1911	743	143	-26	-55	-19
16556	-1913	736	115	-53	3	-46
16561	-1926	723	117	-53	3	-46
16566	-1932	728	135	-53	3	-46
16571	-1935	715	169	-53	3	-46
16576	-1950	732	155	-53	3	-46
16581	-1947	728	139	-53	3	-46
16586	-1962	749	133	-53	3	-46
16591	-1961	740	171	-108	13	-51
16596	-1959	752	148	-108	13	-51
16601	-1970	756	158	-108	13	-51
16606	-1954	746	111	-108	13	-51
16611	-1942	777	108	-108	13	-51
16616	-1954	704	148	-108	13	-51
16621	-1907	724	165	90	32	-300
16626	-1914	759	133	90	32	-300
16631	-1918	745	194	90	32	-300
16636	-1883	720	170	90	32	-300
16641	-1871	687	175	90	32	-300
16646	-1877	690	149	90	32	-300
16651	-1885	680	175	-110	-10	78
16656	-1893	676	164	-110	-10	78
16661	-1916	659	174	-110	-10	78
16666	-1895	699	-35	-110	-10	78
16671	-1916	739	135	-110	-10	78
16676	-1798	675	158	-110	-10	78
16681	-1894	650	122	-79	105	-76
16686	-1874	718	232	-79	105	-76
16691	-1904	780	162	-79	105	-76
16696	-1918	747	187	-79	105	-76
16701	-1859	720	228	-79	105	-76
16706	-1912	693	172	-79	105	-76
16711	-1926	721	155	-118	-53	-108
16716	-1942	728	138	-118	-53	-108
16721	-1954	748	110	-118	-53	-108
16726	-1945	743	119	-118	-53	-108
16731	-1949	727	134	-118	-53	-108
16736	-1934	708	122	-118	-53	-108
16741	-1934	719	132	-118	-53	-108
16746	-1930	687	131	-43	-5	-58
16751	-1921	707	141	-43	-5	-58
16756	-1919	702	156	-43	-5	-58
16761	-1911	686	158	-43	-5	-58
16766	-1907	685	145	-43	-5	-58
16771	-1917	676	127	-43	-5	-58
16776	-1919	693	130	31	-100	-60
16781	-1921	693	148	31	-100	-60
16786	-1934	703	151	31	-100	-60
16791	-1919	710	157	31	-100	-60
16796	-1917	712	149	31	-100	-60
16801	-1887	680	167	31	-100	-60
16806	-1881	672	191	3	-351	-33
16811	-1866	666	180	3	-351	-33
16816	-1871	661	161	3	-351	-33
16821	-1888	683	185	3	-351	-33
16826	-1903	710	183	3	-351	-33
16831	-1933	719	164	3	-351	-33
16836	-1940	731	149	-135	-241	-79
16841	-1938	719	134	-135	-241	-79
16846	-1938	684	140	-135	-241	-79
16851	-1943	682	180	-135	-241	-79
16856	-1935	697	233	-135	-241	-79
16861	-1907	676	248	-135	-241	-79
16866	-1893	655	236	-4	260	-45
16871	-1838	679	0	-4	260	-45
16876	-1892	555	173	-4	260	-45
16881	-1894	600	314	-4	260	-45
16886	-1888	687	232	-4	260	-45
16891	-1915	691	212	-4	260	-45
16896	-1900	691	211	-4	260	-45
16901	-1908	676	180	-90	431	-45
16906	-1889	654	188	-90	431	-45
16911	-1885	641	215	-90	431	-45
16916	-1899	651	194	-90	431	-45
16921	-1932	692	158	-90	431	-45
16926	-1940	734	144	-90	431	-45
16931	-1952	745	117	-85	-119	97
16936	-1969	753	133	-85	-119	97
16941	-1937	729	133	-85	-119	97
16946	-1956	697	161	-85	-119	97
16951	-1926	688	186	-85	-119	97
16956	-1914	689	219	-85	-119	97
16961	-1918	692	181	-88	-84	-114
16966	-1921	722	169	-88	-84	-114
16971	-1928	698	193	-88	-84	-114
16976	-1914	690	188	-88	-84	-114
16981	-1913	707	158	-88	-84	-114
16986	-1923	710	167	-88	-84	-114
16991	-1937	704	107	-33	-91	99
16996	-1937	678	134	-33	-91	99
17001	-1934	645	158	-33	-91	99
17006	-1922	650	148	-33	-91	99
17011	-1909	649	177	-33	-91	99
17016	-1919	665	202	-33	-91	99
17021	-1886	667	202	-48	154	-10
17026	-1887	671	182	-48	154	-10
17031	-1900	686	172	-48	154	-10
17036	-1907	705	160	-48	154	-10
17041	-1923	702	191	-48	154	-10
17046	-1943	704	197	-48	154	-10
17051	-1940	705	154	-48	154	-10
17056	-1930	719	149	-60	42	11
17061	-1915	699	156	-60	42	11
17066	-1899	672	195	-60	42	11
17071	-1894	652	187	-60	42	11
17076	-1887	658	184	-60	42	11
17081	-1905	680	175	-60	42	11
17086	-1915	702	167	-76	75	-10
17091	-1937	705	189	-76	75	-10
17096	-1932	702	172	-76	75	-10
17101	-1934	695	153	-76	75	-10
17106	-1931	683	182	-76	75	-10
17111	-1933	681	184	-76	75	-10
17116	-1919	681	173	-50	-15	-17
17121	-1906	673	179	-50	-15	-17
17126	-1888	668	174	-50	-15	-17
17131	-1893	678	187	-50	-15	-17
17136	-1898	698	169	-50	-15	-17
17141	-1902	694	184	-50	-15	-17
17146	-1908	697	150	3	72	-30
17151	-1922	691	165	3	72	-30
17156	-1933	698	135	3	72	-30
17161	-1925	687	177	3	72	-30
17166	-1924	679	196	3	72	-30
17171	-1920	680	190	3	72	-30
17176	-1906	682	186	-55	-158	-26
17181	-1891	679	176	-55	-158	-26
17186	-1899	696	191	-55	-158	-26
17191	-1920	723	134	-55	-158	-26
17196	-1930	723	146	-55	-158	-26
17201	-1923	704	185	-55	-158	-26
17206	-1929	694	174	-55	-158	-26
17211	-1930	694	206	-40	-264	-13
17216	-1943	711	155	-40	-264	-13
17221	-1945	713	140	-40	-264	-13
17226	-1932	699	159	-40	-264	-13
17231	-1931	685	209	-40	-264	-13
17236	-1910	687	210	-40	-264	-13
17241	-1903	700	174	-76	-198	-162
17246	-1906	699	215	-76	-198	-162
17251	-1898	679	222	-76	-198	-162
17256	-1897	682	186	-76	-198	-162
17261	-1916	678	233	-76	-198	-162
17266	-1917	678	250	-76	-198	-162
17271	-1925	692	248	-52	-532	3
17276	-1927	657	294	-52	-532	3
17281	-1869	667	338	-52	-532	3
17286	-1906	660	271	-52	-532	3
17291	-1867	659	278	-52	-532	3
17296	-1873	682	270	-52	-532	3
17301	-1885	726	178	-103	-101	81
17306	-1824	737	902	-103	-101	81
17311	-1915	687	225	-103	-101	81
17316	-1894	658	243	-103	-101	81
17321	-1924	697	227	-103	-101	81
17326	-1919	702	279	-103	-101	81
17331	-1902	668	305	-14	-11	-80
17336	-1895	659	319	-14	-11	-80
17341	-1877	662	338	-14	-11	-80
17346	-1873	649	363	-14	-11	-80
17351	-1895	682	308	-14	-11	-80
17356	-1894	675	298	-14	-11	-80
17361	-1895	664	291	-14	-11	-80
17366	-1898	674	288	-95	331	61
17371	-1912	681	261	-95	331	61
17376	-1886	697	342	-95	331	61
17381	-1914	713	386	-95	331	61
17386	-1905	693	185	-95	331	61
17391	-1898	650	188	-95	331	61
17396	-1878	675	326	-51	221	5
17401	-1894	699	297	-51	221	5
17406	-1878	721	253	-51	221	5
17411	-1882	697	289	-51	221	5
17416	-1889	687	288	-51	221	5
17421	-1883	647	323	-51	221	5
17426	-1904	681	230	-35	-121	-42
17431	-1914	710	264	-35	-121	-42
17436	-1938	711	247	-35	-121	-42
17441	-1939	755	235	-35	-121	-42
17446	-1927	741	256	-35	-121	-42
17451	-1932	716	250	-35	-121	-42
17456	-1922	716	211	-64	-259	-41
17461	-1906	711	269	-64	-259	-41
17466	-1900	692	227	-64	-259	-41
17471	-1890	697	218	-64	-259	-41
17476	-1861	665	316	-64	-259	-41
17481	-1859	646	303	-64	-259	-41
17486	-1854	644	318	-27	39	19
17491	-1859	681	318	-27	39	19
17496	-1885	711	314	-27	39	19
17501	-1902	725	260	-27	39	19
17506	-1941	723	297	-27	39	19
17511	-1931	687	306	-27	39	19
17516	-1920	701	292	-27	39	19
17521	-1923	693	294	-18	99	-131
17526	-1909	674	297	-18	99	-131
17531	-1912	708	299	-18	99	-131
17536	-1887	695	316	-18	99	-131
17541	-1871	676	297	-18	99	-131
17546	-1866	677	311	-18	99	-131
17551	-1862	691	298	-66	3	91
17556	-1862	704	297	-66	3	91
17561	-1865	701	313	-66	3	91
17566	-1872	724	286	-66	3	91
17571	-1890	694	287	-66	3	91
17576	-1880	709	279	-66	3	91
17581	-1894	722	285	-20	-17	-29
17586	-1900	731	286	-20	-17	-29
17591	-1903	727	297	-20	-17	-29
17596	-1905	701	262	-20	-17	-29
17601	-1885	703	342	-20	-17	-29
17606	-1942	674	292	-20	-17	-29
17611	-1912	711	268	-59	-27	28
17616	-1915	684	262	-59	-27	28
17621	-1924	691	340	-59	-27	28
17626	-1877	682	288	-59	-27	28
17631	-1887	706	297	-59	-27	28
17636	-1879	712	268	-59	-27	28
17641	-1902	720	251	-60	22	104
17646	-1892	724	255	-60	22	104
17651	-1908	704	244	-60	22	104
17656	-1899	709	247	-60	22	104
17661	-1918	674	296	-60	22	104
17666	-1896	697	283	-60	22	104
17671	-1934	723	168	-60	22	104
17676	-1875	700	269	-57	-131	-39
17681	-1881	660	264	-57	-131	-39
17686	-1853	673	267	-57	-131	-39
17691	-1849	691	326	-57	-131	-39
17696	-1861	714	327	-57	-131	-39
17701	-1894	715	345	-57	-131	-39
17706	-1906	718	356	-113	68	36
17711	-1901	682	344	-113	68	36
17716	-1891	674	331	-113	68	36
17721	-1872	691	319	-113	68	36
17726	-1885	704	341	-113	68	36
17731	-1850	725	333	-113	68	36
17736	-1857	744	298	-92	159	-85
17741	-1868	735	284	-92	159	-85
17746	-1901	739	303	-92	159	-85
17751	-1913	728	263	-92	159	-85
17756	-1940	752	246	-92	159	-85
17761	-1942	737	221	-92	159	-85
17766	-1938	724	264	-28	-5	49
17771	-1887	681	301	-28	-5	49
17776	-1817	657	271	-28	-5	49
17781	-1868	658	274	-28	-5	49
17786	-1819	705	305	-28	-5	49
17791	-1870	716	325	-28	-5	49
17796	-1915	705	338	-62	200	-10
17801	-1927	747	292	-62	200	-10
17806	-1936	761	287	-62	200	-10
17811	-1929	698	257	-62	200	-10
17816	-1859	665	294	-62	200	-10
17821	-1885	667	321	-62	200	-10
17826	-1854	688	339	-62	200	-10
17831	-1851	697	310	-52	-35	6
17836	-1886	703	324	-52	-35	6
17841	-1910	720	285	-52	-35	6
17846	-1920	766	261	-52	-35	6
17851	-1960	804	186	-52	-35	6
17856	-1969	806	148	-52	-35	6
17861	-1949	768	161	-95	122	-102
17866	-1957	732	232	-95	122	-102
17871	-1904	690	249	-95	122	-102
17876	-1897	672	270	-95	122	-102
17881	-1872	648	324	-95	122	-102
17886	-1850	639	342	-95	122	-102
17891	-1864	656	318	-34	-34	77
17896	-1887	689	285	-34	-34	77
17901	-1869	691	246	-34	-34	77
17906	-1897	731	233	-34	-34	77
17911	-1919	730	211	-34	-34	77
17916	-1916	728	199	-34	-34	77
17921	-1922	710	227	-52	-40	-5
17926	-1906	711	242	-52	-40	-5
17931	-1916	702	267	-52	-40	-5
17936	-1898	695	293	-52	-40	-5
17941	-1857	711	269	-52	-40	-5
17946	-1889	710	243	-52	-40	-5
17951	-1907	700	251	-101	-51	-17
17956	-1896	712	239	-101	-51	-17
17961	-1926	714	248	-101	-51	-17
17966	-1927	728	270	-101	-51	-17
17971	-1922	698	255	-101	-51	-17
17976	-1896	694	271	-101	-51	-17
17981	-1892	676	292	-101	-51	-17
17986	-1854	694	303	-140	4	-68
17991	-1877	710	289	-140	4	-68
17996	-1881	720	295	-140	4	-68
18001	-1918	703	293	-140	4	-68
18006	-1914	702	248	-140	4	-68
18011	-1890	713	257	-140	4	-68
18016	-1878	701	265	-17	-21	-102
18021	-1903	710	276	-17	-21	-102
18026	-1900	700	273	-17	-21	-102
18031	-1880	718	256	-17	-21	-102
18036	-1900	692	284	-17	-21	-102
18041	-1929	688	281	-17	-21	-102
18046	-1925	678	258	-190	89	53
18051	-1934	720	244	-190	89	53
18056	-1968	712	212	-190	89	53
18061	-2004	682	270	-190	89	53
18066	-1902	680	240	-190	89	53
18071	-1868	666	316	-190	89	53
18076	-1840	655	327	-95	-64	-74
18081	-1784	730	311	-95	-64	-74
18086	-1896	689	282	-95	-64	-74
18091	-1851	740	254	-95	-64	-74
18096	-1931	725	245	-95	-64	-74
18101	-1938	727	176	-95	-64	-74
18106	-1982	725	228	-27	92	18
18111	-1943	694	262	-27	92	18
18116	-1868	701	261	-27	92	18
18121	-1886	615	344	-27	92	18
18126	-1838	620	355	-27	92	18
18131	-1879	649	346	-27	92	18
18136	-1868	637	322	-27	92	18
18141	-1883	667	333	-32	0	5
18146	-1912	708	246	-32	0	5
18151	-1928	763	268	-32	0	5
18156	-1955	761	269	-32	0	5
18161	-1964	791	238	-32	0	5
18166	-1993	799	225	-32	0	5
18171	-1979	681	269	-66	147	-41
18176	-1909	697	338	-66	147	-41
18181	-1877	678	318	-66	147	-41
18186	-1807	659	317	-66	147	-41
18191	-1788	687	306	-66	147	-41
18196	-1796	712	266	-66	147	-41
18201	-1828	712	248	-63	-5	82
18206	-1849	767	247	-63	-5	82
18211	-1958	749	214	-63	-5	82
18216	-1983	762	201	-63	-5	82
18221	-2036	772	170	-63	-5	82
18226	-1991	776	172	-63	-5	82
18231	-1980	725	192	-56	0	58
18236	-1927	685	213	-56	0	58
18241	-1774	656	240	-56	0	58
18246	-1749	654	292	-56	0	58
18251	-1753	664	348	-56	0	58
18256	-1781	685	296	-56	0	58
18261	-1861	705	271	-32	-42	59
18266	-1908	753	220	-32	-42	59
18271	-1979	792	195	-32	-42	59
18276	-2001	777	216	-32	-42	59
18281	-1982	780	247	-32	-42	59
18286	-1957	733	246	-32	-42	59
18291	-1925	695	269	-32	-42	59
18296	-1853	678	301	-73	18	-27
18301	-1835	674	311	-73	18	-27
18306	-1818	680	350	-73	18	-27
18311	-1827	691	323	-73	18	-27
18316	-1907	732	266	-73	18	-27
18321	-1926	776	248	-73	18	-27
18326	-1965	779	239	-50	48	-83
18331	-1976	778	262	-50	48	-83
18336	-1960	762	275	-50	48	-83
18341	-1923	728	275	-50	48	-83
18346	-1887	720	282	-50	48	-83
18351	-1843	699	291	-50	48	-83
18356	-1825	689	285	-56	43	-65
18361	-1839	711	298	-56	43	-65
18366	-1861	722	282	-56	43	-65
18371	-1894	733	267	-56	43	-65
18376	-1897	729	260	-56	43	-65
18381	-1912	709	265	-56	43	-65
18386	-1904	692	259	-40	70	112
18391	-1888	684	254	-40	70	112
18396	-1880	680	288	-40	70	112
18401	-1881	668	290	-40	70	112
18406	-1901	695	267	-40	70	112
18411	-1906	707	251	-40	70	112
18416	-1926	709	247	-70	-10	-71
18421	-1926	725	217	-70	-10	-71
18426	-1931	732	231	-70	-10	-71
18431	-1917	736	219	-70	-10	-71
18436	-1931	734	238	-70	-10	-71
18441	-1934	749	216	-70	-10	-71
18446	-1966	751	214	-70	-10	-71
18451	-1943	739	250	-35	-31	33
18456	-1928	720	264	-35	-31	33
18461	-1918	714	264	-35	-31	33
18466	-1890	697	284	-35	-31	33
18471	-1858	703	284	-35	-31	33
18476	-1849	709	267	-35	-31	33
18481	-1858	705	282	-65	94	50
18486	-1872	716	258	-65	94	50
18491	-1866	708	274	-65	94	50
18496	-1888	716	249	-65	94	50
18501	-1886	720	240	-65	94	50
18506	-1876	706	267	-65	94	50
18511	-1851	695	271	-33	-18	-35
18516	-1845	711	277	-33	-18	-35
18521	-1857	726	237	-33	-18	-35
18526	-1900	746	229	-33	-18	-35
18531	-1910	733	209	-33	-18	-35
18536	-1941	745	189	-33	-18	-35
18541	-1952	741	196	-40	-93	19
18546	-1941	736	214	-40	-93	19
18551	-1926	714	254	-40	-93	19
18556	-1911	689	264	-40	-93	19
18561	-1879	663	287	-40	-93	19
18566	-1873	673	281	-40	-93	19
18571	-1865	661	293	-36	13	-74
18576	-1879	681	267	-36	13	-74
18581	-1893	699	263	-36	13	-74
18586	-1898	719	238	-36	13	-74
18591	-1938	742	206	-36	13	-74
18596	-1943	741	217	-36	13	-74
18601	-1925	726	234	-36	13	-74
18606	-1912	711	257	-29	36	-14
18611	-1895	679	284	-29	36	-14
18616	-1909	677	251	-29	36	-14
18621	-1904	694	259	-29	36	-14
18626	-1893	685	258	-29	36	-14
18631	-1893	700	266	-29	36	-14
18636	-1912	717	241	-21	13	-90
18641	-1916	722	250	-21	13	-90
18646	-1915	718	266	-21	13	-90
18651	-1900	714	279	-21	13	-90
18656	-1877	693	264	-21	13	-90
18661	-1855	690	280	-21	13	-90
18666	-1849	696	265	-17	43	131
18671	-1866	694	249	-17	43	131
18676	-1867	693	241	-17	43	131
18681	-1876	710	220	-17	43	131
18686	-1914	710	230	-17	43	131
18691	-1933	717	236	-17	43	131
18696	-1930	711	257	61	-25	-106
18701	-1920	709	254	61	-25	-106
18706	-1918	708	252	61	-25	-106
18711	-1919	728	223	61	-25	-106
18716	-1912	726	255	61	-25	-106
18721	-1914	695	268	61	-25	-106
18726	-1924	704	261	66	-31	-120
18731	-1935	743	238	66	-31	-120
18736	-1968	742	233	66	-31	-120
18741	-1983	738	230	66	-31	-120
18746	-1991	742	234	66	-31	-120
18751	-2001	724	263	66	-31	-120
18756	-1993	718	267	66	-31	-120
18761	-1994	704	263	116	63	-82
18766	-1951	683	283	116	63	-82
18771	-1922	643	303	116	63	-82
18776	-1895	611	310	116	63	-82
18781	-1837	642	301	116	63	-82
18786	-1843	614	270	116	63	-82
18791	-1803	627	319	68	134	77
18796	-1747	629	327	68	134	77
18801	-1782	653	270	68	134	77
18806	-1916	589	306	68	134	77
18811	-1837	671	275	68	134	77
18816	-1857	688	250	68	134	77
18821	-1915	699	214	-100	353	147
18826	-1971	687	200	-100	353	147
18831	-1944	674	190	-100	353	147
18836	-1925	699	95	-100	353	147
18841	-1968	652	96	-100	353	147
18846	-1898	597	20	-100	353	147
18851	-1927	706	82	-2	-49	-167
18856	-1943	807	98	-2	-49	-167
18861	-1971	820	20	-2	-49	-167
18866	-1984	808	149	-2	-49	-167
18871	-1961	869	215	-2	-49	-167
18876	-2007	811	186	-2	-49	-167
18881	-1967	766	221	-143	-48	6
18886	-1931	738	185	-143	-48	6
18891	-1915	676	218	-143	-48	6
18896	-1877	622	194	-143	-48	6
18901	-1857	608	157	-143	-48	6
18906	-1896	677	142	-143	-48	6
18911	-1856	711	127	-143	-48	6
18916	-1918	737	108	-30	-673	-240
18921	-1921	789	138	-30	-673	-240
18926	-1952	753	189	-30	-673	-240
18931	-1928	739	218	-30	-673	-240
18936	-1921	727	208	-30	-673	-240
18941	-1895	686	223	-30	-673	-240
18946	-1884	648	241	-111	-101	84
18951	-1874	632	229	-111	-101	84
18956	-1895	656	229	-111	-101	84
18961	-1893	674	232	-111	-101	84
18966	-1907	678	200	-111	-101	84
18971	-1917	551	133	-111	-101	84
18976	-1892	621	217	-65	7	-112
18981	-1919	684	259	-65	7	-112
18986	-1932	707	310	-65	7	-112
18991	-1932	726	329	-65	7	-112
18996	-1914	697	331	-65	7	-112
19001	-1920	723	276	-65	7	-112
19006	-1901	655	259	-40	-67	21
19011	-1914	646	232	-40	-67	21
19016	-1905	664	221	-40	-67	21
19021	-1905	700	268	-40	-67	21
19026	-1922	720	259	-40	-67	21
19031	-1916	753	273	-40	-67	21
19036	-1920	735	277	-57	2028	33
19041	-1911	722	284	-57	2028	33
19046	-1887	687	309	-57	2028	33
19051	-1874	680	357	-57	2028	33
19056	-1786	289	1058	-57	2028	33
19061	-1800	634	494	-57	2028	33
19066	-1831	655	207	-57	2028	33
19071	-1860	672	52	-66	56	-112
19076	-1900	684	-121	-66	56	-112
19081	-1930	738	-53	-66	56	-112
19086	-1926	766	249	-66	56	-112
19091	-1952	779	275	-66	56	-112
19096	-1971	754	132	-66	56	-112
19101	-1966	729	91	-62	-11	27
19106	-1956	685	196	-62	-11	27
19111	-1923	663	158	-62	-11	27
19116	-1915	642	170	-62	-11	27
19121	-1888	643	215	-62	-11	27
19126	-1890	645	190	-62	-11	27
19131	-1894	662	207	-124	34	2
19136	-1885	687	215	-124	34	2
19141	-1888	700	177	-124	34	2
19146	-1891	714	186	-124	34	2
19151	-1904	713	164	-124	34	2
19156	-1910	705	140	-124	34	2
19161	-1903	696	173	-2	106	-104
19166	-1916	707	188	-2	106	-104
19171	-1906	717	205	-2	106	-104
19176	-1906	712	220	-2	106	-104
