time	accelerometer_x	accelerometer_y	accelerometer_z	gyroscope_x	gyroscope_y	gyroscope_z
13006	-34	41	1923	-66	28	-85
13011	-34	38	1903	-66	28	-85
13016	-31	30	1925	-66	28	-85
13021	-30	36	1918	-66	28	-85
13026	-31	27	1909	-15	-22	189
13031	-26	38	1934	-15	-22	189
13036	-43	20	1909	-15	-22	189
13041	-29	29	1924	-15	-22	189
13046	-34	36	1915	-15	-22	189
13051	-25	32	1924	-15	-22	189
13056	-38	22	1879	-35	14	12
13061	-18	33	1931	-35	14	12
13066	-25	32	1926	-35	14	12
13071	-29	26	1920	-35	14	12
13076	-38	30	1915	-35	14	12
13081	-28	28	1906	-35	14	12
13086	-27	37	1915	-16	-6	-11
13091	-29	25	1926	-16	-6	-11
13096	-31	26	1923	-16	-6	-11
13101	-27	42	1914	-16	-6	-11
13106	-30	46	1915	-16	-6	-11
13111	-25	25	1911	-16	-6	-11
13116	-37	23	1910	-20	4	30
13121	-27	26	1921	-20	4	30
13126	-28	19	1924	-20	4	30
13131	-23	28	1911	-20	4	30
13136	-37	27	1907	-20	4	30
13141	-23	30	1924	-20	4	30
13146	-23	31	1919	-24	15	-24
13151	-18	32	1936	-24	15	-24
13156	-34	24	1921	-24	15	-24
13161	-35	24	1919	-24	15	-24
13166	-25	26	1910	-24	15	-24
13171	-26	20	1918	-24	15	-24
13176	-28	17	1900	-24	15	-24
13181	-36	29	1930	-23	21	37
13186	-30	40	1940	-23	21	37
13191	-25	37	1921	-23	21	37
13196	-24	15	1919	-23	21	37
13201	-24	17	1926	-23	21	37
13206	-23	19	1906	-23	21	37
13211	-31	12	1923	-72	25	-87
13216	-31	28	1925	-72	25	-87
13221	-35	24	1905	-72	25	-87
13226	-33	37	1920	-72	25	-87
13231	-29	27	1913	-72	25	-87
13236	-23	23	1917	-72	25	-87
13241	-27	22	1908	-35	61	102
13246	-29	28	1917	-35	61	102
13251	-27	29	1925	-35	61	102
13256	-27	33	1928	-35	61	102
13261	-24	24	1919	-35	61	102
13266	-36	20	1925	-35	61	102
13271	-26	14	1931	-29	-22	-80
13276	-24	39	1922	-29	-22	-80
13281	-34	31	1921	-29	-22	-80
13286	-24	34	1906	-29	-22	-80
13291	-32	24	1909	-29	-22	-80
13296	-33	30	1905	-29	-22	-80
13301	-36	32	1916	-80	36	-16
13306	-35	22	1918	-80	36	-16
13311	-30	31	1914	-80	36	-16
13316	-28	33	1915	-80	36	-16
13321	-28	32	1914	-80	36	-16
13326	-29	31	1908	-80	36	-16
13331	-39	25	1935	-80	36	-16
13336	-29	24	1912	-59	46	-54
13341	-31	23	1917	-59	46	-54
13346	-30	31	1899	-59	46	-54
13351	-32	37	1922	-59	46	-54
13356	-32	18	1916	-59	46	-54
13361	-22	25	1915	-59	46	-54
13366	-35	32	1914	-23	29	-5
13371	-31	29	1917	-23	29	-5
13376	-30	24	1921	-23	29	-5
13381	-28	28	1920	-23	29	-5
13386	-31	16	1913	-23	29	-5
13391	-30	31	1920	-23	29	-5
13396	-30	30	1914	-1	9	-4
13401	-32	25	1911	-1	9	-4
13406	-35	33	1926	-1	9	-4
13411	-29	19	1919	-1	9	-4
13416	-31	28	1916	-1	9	-4
13421	-26	21	1920	-1	9	-4
13426	-22	33	1922	-38	29	-13
13431	-29	25	1925	-38	29	-13
13436	-30	15	1927	-38	29	-13
13441	-26	28	1919	-38	29	-13
13446	-34	27	1928	-38	29	-13
13451	-34	35	1931	-38	29	-13
13456	-31	28	1918	-36	5	-7
13461	-34	34	1913	-36	5	-7
13466	-26	23	1905	-36	5	-7
13471	-32	30	1922	-36	5	-7
13476	-35	22	1920	-36	5	-7
13481	-28	26	1926	-36	5	-7
13486	-26	23	1927	-36	5	-7
13491	-26	33	1931	-64	-12	-57
13496	-35	34	1897	-64	-12	-57
13501	-29	34	1919	-64	-12	-57
13506	-41	31	1923	-64	-12	-57
13511	-22	27	1905	-64	-12	-57
13516	-35	12	1918	-64	-12	-57
13521	-28	28	1920	-61	-9	21
13526	-26	19	1922	-61	-9	21
13531	-44	26	1928	-61	-9	21
13536	-36	33	1926	-61	-9	21
13541	-33	29	1914	-61	-9	21
13546	-26	32	1902	-61	-9	21
13551	-30	24	1936	-37	66	-98
13556	-25	23	1909	-37	66	-98
13561	-29	30	1921	-37	66	-98
13566	-29	25	1932	-37	66	-98
13571	-34	28	1916	-37	66	-98
13576	-32	26	1915	-37	66	-98
13581	-30	30	1918	-86	-12	106
13586	-29	32	1916	-86	-12	106
13591	-29	23	1926	-86	-12	106
13596	-36	34	1903	-86	-12	106
13601	-22	35	1911	-86	-12	106
13606	-27	26	1902	-86	-12	106
13611	-40	29	1921	-53	18	59
13616	-34	23	1912	-53	18	59
13621	-33	29	1910	-53	18	59
13626	-29	49	1924	-53	18	59
13631	-33	34	1908	-53	18	59
13636	-30	18	1927	-53	18	59
13641	-27	17	1910	-53	18	59
13646	-26	15	1912	-69	2	112
13651	-32	24	1896	-69	2	112
13656	-24	29	1919	-69	2	112
13661	-26	33	1912	-69	2	112
13666	-24	24	1915	-69	2	112
13671	-20	33	1933	-69	2	112
13676	-31	27	1921	-59	25	-49
13681	-26	18	1908	-59	25	-49
13686	-22	28	1912	-59	25	-49
13691	-38	19	1933	-59	25	-49
13696	-27	22	1919	-59	25	-49
13701	-36	15	1906	-59	25	-49
13706	-39	21	1912	-27	-31	27
13711	-37	19	1928	-27	-31	27
13716	-32	8	1912	-27	-31	27
13721	-27	-27	1984	-27	-31	27
13726	-36	15	1864	-27	-31	27
13731	-27	14	1952	-27	-31	27
13736	-32	17	1914	-20	14	-30
13741	-33	23	1933	-20	14	-30
13746	-28	26	1917	-20	14	-30
13751	-27	53	1907	-20	14	-30
13756	-22	15	1926	-20	14	-30
13761	-36	29	1895	-20	14	-30
13766	-26	39	1918	-92	-25	-7
13771	-27	20	1921	-92	-25	-7
13776	-28	24	1915	-92	-25	-7
13781	-31	12	1897	-92	-25	-7
13786	-26	25	1927	-92	-25	-7
13791	-35	30	1917	-92	-25	-7
13796	-39	31	1933	-92	-25	-7
13801	-34	24	1906	-28	22	47
13806	-23	25	1924	-28	22	47
13811	-26	20	1915	-28	22	47
13816	-28	9	1911	-28	22	47
13821	-26	33	1928	-28	22	47
13826	-30	18	1921	-28	22	47
13831	-29	25	1917	-75	35	-45
13836	-26	18	1921	-75	35	-45
13841	-30	19	1912	-75	35	-45
13846	-35	11	1916	-75	35	-45
13851	-29	7	1916	-75	35	-45
13856	-31	30	1920	-75	35	-45
13861	-32	22	1912	-95	76	2
13866	-31	32	1926	-95	76	2
13871	-30	23	1917	-95	76	2
13876	-30	3	1931	-95	76	2
13881	-33	12	1913	-95	76	2
13886	-28	14	1905	-95	76	2
13891	-26	24	1923	-44	16	-115
13896	-20	29	1910	-44	16	-115
13901	-30	24	1912	-44	16	-115
13906	-22	13	1916	-44	16	-115
13911	-37	15	1928	-44	16	-115
13916	-29	27	1912	-44	16	-115
13921	-29	28	1924	-33	45	-35
13926	-36	14	1903	-33	45	-35
13931	-26	16	1932	-33	45	-35
13936	-32	15	1911	-33	45	-35
13941	-35	17	1907	-33	45	-35
13946	-25	14	1924	-33	45	-35
13951	-34	26	1902	-33	45	-35
13956	-14	27	1924	-17	39	-118
13961	-33	23	1908	-17	39	-118
13966	-28	17	1927	-17	39	-118
13971	-29	24	1914	-17	39	-118
13976	-33	39	1922	-17	39	-118
13981	-23	16	1911	-17	39	-118
13986	-35	27	1930	-30	-6	68
13991	-25	26	1926	-30	-6	68
13996	-38	18	1910	-30	-6	68
14001	-30	22	1907	-30	-6	68
14006	-26	24	1911	-30	-6	68
14011	-30	22	1915	-30	-6	68
14016	-29	24	1913	-27	-11	-46
14021	-30	32	1894	-27	-11	-46
14026	-34	18	1937	-27	-11	-46
14031	-34	38	1927	-27	-11	-46
14036	-32	26	1903	-27	-11	-46
14041	-22	19	1906	-27	-11	-46
14046	-25	27	1914	-7	15	2
14051	-21	33	1929	-7	15	2
14056	-35	36	1926	-7	15	2
14061	-31	26	1918	-7	15	2
14066	-32	26	1910	-7	15	2
14071	-29	30	1917	-7	15	2
14076	-34	10	1921	-24	-9	12
14081	-39	13	1916	-24	-9	12
14086	-34	24	1929	-24	-9	12
14091	-34	19	1895	-24	-9	12
14096	-56	29	1772	-24	-9	12
14101	-41	9	1887	-24	-9	12
14106	-14	19	1946	-24	-9	12
14111	-26	26	1868	-31	-49	-24
14116	-42	34	1932	-31	-49	-24
14121	-35	37	1908	-31	-49	-24
14126	-27	23	1907	-31	-49	-24
14131	-33	17	1941	-31	-49	-24
14136	-39	19	1912	-31	-49	-24
14141	-36	15	1925	-177	55	-7
14146	-41	9	1888	-177	55	-7
14151	-27	12	1926	-177	55	-7
14156	-30	31	1930	-177	55	-7
14161	-44	11	1898	-177	55	-7
14166	-60	24	1894	-177	55	-7
14171	-25	26	1921	-128	-1	-77
14176	-32	23	1911	-128	-1	-77
14181	-18	24	1924	-128	-1	-77
14186	-16	30	1919	-128	-1	-77
14191	-24	29	1909	-128	-1	-77
14196	-23	10	1927	-128	-1	-77
14201	-37	6	1921	-49	14	-10
14206	-31	-11	1915	-49	14	-10
14211	-28	-30	1894	-49	14	-10
14216	-23	12	1908	-49	14	-10
14221	-29	11	1935	-49	14	-10
14226	-30	9	1916	-49	14	-10
14231	-29	12	1916	-2	34	-140
14236	-21	6	1915	-2	34	-140
14241	-31	16	1920	-2	34	-140
14246	-33	6	1908	-2	34	-140
14251	-32	1	1920	-2	34	-140
14256	-29	-11	1915	-2	34	-140
14261	-34	-4	1924	-2	34	-140
14266	-30	-1	1926	-51	-31	56
14271	-24	17	1913	-51	-31	56
14276	-25	16	1905	-51	-31	56
14281	10	11	1909	-51	-31	56
14286	-12	24	1918	-51	-31	56
14291	-20	15	1914	-51	-31	56
14296	-21	5	1929	-54	-2	-115
14301	-38	-2	1913	-54	-2	-115
14306	-43	-5	1917	-54	-2	-115
14311	-43	2	1916	-54	-2	-115
14316	-26	2	1908	-54	-2	-115
14321	-35	3	1907	-54	-2	-115
14326	-29	-3	1915	-49	-24	61
14331	-24	1	1927	-49	-24	61
14336	-34	-6	1910	-49	-24	61
14341	-32	-8	1916	-49	-24	61
14346	-37	-1	1914	-49	-24	61
14351	-28	-1	1926	-49	-24	61
14356	-34	6	1906	-53	-39	-22
14361	-26	2	1924	-53	-39	-22
14366	-27	-10	1917	-53	-39	-22
14371	-25	2	1912	-53	-39	-22
14376	-28	-2	1906	-53	-39	-22
14381	-28	4	1910	-53	-39	-22
14386	-29	7	1919	-40	-26	-10
14391	-19	1	1929	-40	-26	-10
14396	-39	3	1928	-40	-26	-10
14401	-32	-18	1927	-40	-26	-10
14406	-29	-6	1915	-40	-26	-10
14411	-28	14	1904	-40	-26	-10
14416	-25	12	1917	-40	-26	-10
14421	-39	3	1910	-3	-32	56
14426	-31	-6	1905	-3	-32	56
14431	-26	-1	1906	-3	-32	56
14436	-28	-1	1908	-3	-32	56
14441	-29	-11	1908	-3	-32	56
14446	-24	-4	1894	-3	-32	56
14451	-24	4	1900	-43	2	-13
14456	-21	6	1927	-43	2	-13
14461	-26	9	1913	-43	2	-13
14466	-15	1	1908	-43	2	-13
14471	-31	-8	1918	-43	2	-13
14476	-28	-12	1912	-43	2	-13
14481	-27	-3	1912	-60	21	-19
14486	-28	-6	1924	-60	21	-19
14491	-26	11	1924	-60	21	-19
14496	-25	4	1915	-60	21	-19
14501	-23	-3	1921	-60	21	-19
14506	-30	-3	1920	-60	21	-19
14511	-22	2	1937	-50	34	-83
14516	-29	9	1919	-50	34	-83
14521	-27	1	1924	-50	34	-83
14526	-26	6	1903	-50	34	-83
14531	-22	16	1913	-50	34	-83
14536	-26	-2	1910	-50	34	-83
14541	-34	0	1927	6	-62	25
14546	-30	-1	1909	6	-62	25
14551	-37	2	1911	6	-62	25
14556	-37	0	1919	6	-62	25
14561	-25	8	1917	6	-62	25
14566	-28	3	1916	6	-62	25
14571	-24	1	1935	6	-62	25
14576	-31	0	1910	-67	46	-121
14581	-18	1	1898	-67	46	-121
14586	-28	4	1902	-67	46	-121
14591	-27	-8	1926	-67	46	-121
14596	-24	-4	1923	-67	46	-121
14601	-17	3	1929	-67	46	-121
14606	-32	-7	1924	-34	19	119
14611	-30	-1	1930	-34	19	119
14616	-28	0	1927	-34	19	119
14621	-23	1	1920	-34	19	119
14626	-24	5	1931	-34	19	119
14631	-21	4	1910	-34	19	119
14636	-29	-3	1915	-36	-5	-99
14641	-35	-6	1911	-36	-5	-99
14646	-27	3	1908	-36	-5	-99
14651	-38	3	1920	-36	-5	-99
14656	-20	-10	1921	-36	-5	-99
14661	-28	-7	1921	-36	-5	-99
14666	-32	-4	1917	-35	-1	78
14671	-25	0	1915	-35	-1	78
14676	-34	0	1913	-35	-1	78
14681	-21	-3	1908	-35	-1	78
14686	-30	5	1933	-35	-1	78
14691	-27	0	1918	-35	-1	78
14696	-19	-4	1916	-47	-16	-11
14701	-24	3	1916	-47	-16	-11
14706	-28	-4	1914	-47	-16	-11
14711	-28	5	1904	-47	-16	-11
14716	-24	5	1928	-47	-16	-11
14721	-32	4	1939	-47	-16	-11
14726	-21	-3	1908	-47	-16	-11
14731	-27	5	1913	-11	-35	-17
14736	-25	5	1918	-11	-35	-17
14741	-29	1	1907	-11	-35	-17
14746	-19	7	1909	-11	-35	-17
14751	-30	0	1922	-11	-35	-17
14756	-15	3	1917	-11	-35	-17
14761	-34	6	1914	-36	-61	-60
14766	-32	6	1923	-36	-61	-60
14771	-32	6	1908	-36	-61	-60
14776	-31	-3	1921	-36	-61	-60
14781	-33	0	1904	-36	-61	-60
14786	-21	3	1913	-36	-61	-60
14791	-26	-6	1922	-51	19	-48
14796	-27	-8	1925	-51	19	-48
14801	-30	-1	1933	-51	19	-48
14806	-33	0	1913	-51	19	-48
14811	-34	0	1909	-51	19	-48
14816	-37	5	1920	-51	19	-48
14821	-22	12	1916	-68	4	8
14826	-29	2	1918	-68	4	8
14831	-38	4	1921	-68	4	8
14836	-28	-7	1901	-68	4	8
14841	-33	-6	1909	-68	4	8
14846	-39	-9	1923	-68	4	8
14851	-25	2	1920	-4	12	-74
14856	-26	2	1923	-4	12	-74
14861	-26	1	1926	-4	12	-74
14866	-35	10	1913	-4	12	-74
14871	-22	-1	1923	-4	12	-74
14876	-19	3	1913	-4	12	-74
14881	-22	-15	1916	-4	12	-74
14886	-29	1	1917	-34	52	74
14891	-32	-11	1906	-34	52	74
14896	-26	7	1912	-34	52	74
14901	-26	13	1899	-34	52	74
14906	-18	6	1911	-34	52	74
14911	-29	1	1911	-34	52	74
14916	-29	3	1927	-45	51	-149
14921	-28	5	1917	-45	51	-149
14926	-28	-5	1933	-45	51	-149
14931	-23	2	1908	-45	51	-149
14936	-25	8	1915	-45	51	-149
14941	-28	7	1922	-45	51	-149
14946	-34	4	1915	-32	2	78
14951	-18	15	1895	-32	2	78
14956	-26	-6	1927	-32	2	78
14961	-36	11	1927	-32	2	78
14966	-20	1	1917	-32	2	78
14971	-29	-6	1911	-32	2	78
14976	-33	-3	1902	-71	-56	-96
14981	-24	-9	1922	-71	-56	-96
14986	-32	3	1907	-71	-56	-96
14991	-26	7	1908	-71	-56	-96
14996	-29	-9	1909	-71	-56	-96
15001	-29	3	1927	-71	-56	-96
15006	-33	1	1920	1	22	63
15011	-33	-7	1912	1	22	63
15016	-24	-1	1918	1	22	63
15021	-28	12	1909	1	22	63
15026	-25	2	1919	1	22	63
15031	-29	1	1916	1	22	63
15036	-25	7	1924	1	22	63
15041	-22	8	1907	-20	-25	12
15046	-28	-1	1910	-20	-25	12
15051	-27	9	1911	-20	-25	12
15056	-19	5	1912	-20	-25	12
15061	-31	7	1909	-20	-25	12
15066	-31	22	1906	-20	-25	12
15071	-26	-1	1919	-70	-4	-20
15076	-30	10	1906	-70	-4	-20
15081	-26	12	1909	-70	-4	-20
15086	-32	12	1909	-70	-4	-20
15091	-28	5	1909	-70	-4	-20
15096	-36	3	1908	-70	-4	-20
15101	-24	5	1932	-83	49	-71
15106	-25	6	1924	-83	49	-71
15111	-33	-2	1915	-83	49	-71
15116	-32	12	1912	-83	49	-71
15121	-30	4	1905	-83	49	-71
15126	-30	9	1909	-83	49	-71
15131	-34	9	1909	-112	44	-2
15136	-26	7	1917	-112	44	-2
15141	-31	13	1928	-112	44	-2
15146	-33	4	1921	-112	44	-2
15151	-38	15	1917	-112	44	-2
15156	-33	13	1906	-112	44	-2
15161	-29	4	1910	-54	-1	-7
15166	-27	4	1921	-54	-1	-7
15171	-34	-13	1922	-54	-1	-7
15176	-33	-10	1914	-54	-1	-7
15181	-22	-3	1921	-54	-1	-7
15186	-25	-2	1906	-54	-1	-7
15191	-28	12	1910	-54	-1	-7
15196	-29	-9	1913	-21	61	-98
15201	-29	-5	1914	-21	61	-98
15206	-24	-4	1906	-21	61	-98
15211	-22	2	1902	-21	61	-98
15216	-20	2	1919	-21	61	-98
15221	-25	14	1913	-21	61	-98
15226	-24	7	1910	-156	-202	-73
15231	-31	0	1929	-156	-202	-73
15236	-32	13	1897	-156	-202	-73
1916	-2016	453	79	-156	-202	-73
13921	-1999	480	92	-156	-202	-73
13926	-1997	465	106	-156	-202	-73
13931	-1991	459	107	-156	-202	-73
13936	-1992	445	92	-156	-202	-73
13941	-1993	447	105	-156	-202	-73
13946	-1980	416	114	-156	-202	-73
13951	-1981	385	117	-156	-202	-73
13956	-1966	417	118	-156	-202	-73
13961	-1974	462	143	-156	-202	-73
13966	-1981	453	87	-156	-202	-73
13971	-1975	465	78	-156	-202	-73
13976	-1983	475	123	-156	-202	-73
13981	-1980	423	144	-156	-202	-73
13986	-1977	439	118	-156	-202	-73
13991	-1972	461	61	-156	-202	-73
13996	-2027	436	90	-156	-202	-73
14001	-2072	414	84	-156	-202	-73
14006	-2027	388	85	-156	-202	-73
14011	-1979	373	124	-156	-202	-73
14016	-2010	366	99	-156	-202	-73
14021	-1952	424	119	-156	-202	-73
14026	-1972	529	94	-156	-202	-73
14031	-1991	587	86	-156	-202	-73
14036	-1994	558	159	-156	-202	-73
14041	-1963	520	183	-156	-202	-73
14046	-1946	365	212	-156	-202	-73
14051	-1890	340	163	-156	-202	-73
14056	-1919	379	131	-156	-202	-73
14061	-1899	385	159	-156	-202	-73
14066	-1856	315	195	-156	-202	-73
14071	-1877	363	186	-156	-202	-73
14076	-1907	444	158	-156	-202	-73
14081	-1958	549	57	-156	-202	-73
14086	-2048	652	27	-156	-202	-73
14091	-2048	648	14	-156	-202	-73
14096	-2077	618	26	-156	-202	-73
14101	-2027	594	50	-156	-202	-73
14106	-2023	597	15	-156	-202	-73
14111	-1987	563	7	-156	-202	-73
14116	-1994	526	-43	-156	-202	-73
14121	-2015	515	-103	-156	-202	-73
14126	-2010	507	-18	-156	-202	-73
14131	-2039	544	45	-156	-202	-73
14136	-1996	518	54	-156	-202	-73
14141	-1992	531	21	-156	-202	-73
14146	-1982	539	22	-156	-202	-73
14151	-2066	556	34	-156	-202	-73
14156	-2014	571	43	-156	-202	-73
14161	-1995	580	106	-156	-202	-73
14166	-1967	552	107	-156	-202	-73
14171	-2007	487	90	-156	-202	-73
14176	-1982	500	52	-156	-202	-73
14181	-2039	544	41	-156	-202	-73
14186	-1934	818	-158	-156	-202	-73
14191	-2104	526	277	-156	-202	-73
14196	-1899	561	121	-156	-202	-73
14201	-1938	556	141	-156	-202	-73
14206	-1973	523	198	-156	-202	-73
14211	-2036	575	154	-156	-202	-73
14216	-2024	629	96	-156	-202	-73
14221	-2045	623	109	-156	-202	-73
14226	-2058	628	117	-156	-202	-73
14231	-2102	651	114	-156	-202	-73
14236	-2161	696	49	-156	-202	-73
14241	-2247	751	70	-156	-202	-73
14246	-2172	705	163	-156	-202	-73
14251	-2135	640	203	-156	-202	-73
14256	-2151	644	203	-156	-202	-73
14261	-2165	493	75	-156	-202	-73
14266	-2202	350	-215	-156	-202	-73
14271	-2022	117	-342	-156	-202	-73
14276	-1924	46	-259	-156	-202	-73
14281	-1946	222	-45	-156	-202	-73
14286	-1964	352	167	-156	-202	-73
14291	-1922	483	176	-156	-202	-73
14296	-1900	565	103	-156	-202	-73
14301	-1924	641	116	-156	-202	-73
14306	-1900	647	54	-156	-202	-73
14311	-1882	644	2	-156	-202	-73
14316	-1887	638	6	-156	-202	-73
14321	-1854	582	16	-156	-202	-73
14326	-1786	497	76	-156	-202	-73
14331	-1720	397	85	-156	-202	-73
14336	-1656	363	113	-156	-202	-73
14341	-1586	400	78	-156	-202	-73
14346	-1570	389	2	-156	-202	-73
14351	-1611	410	55	-156	-202	-73
14356	-1724	381	96	-156	-202	-73
14361	-1786	406	86	-156	-202	-73
14366	-1842	403	12	-156	-202	-73
14371	-1903	414	-22	-156	-202	-73
14376	-2063	525	-103	-156	-202	-73
14381	-2192	558	-113	-156	-202	-73
14386	-2257	575	-132	-156	-202	-73
14391	-2324	662	-129	-156	-202	-73
14396	-2345	723	-86	-156	-202	-73
14401	-2341	627	-75	-156	-202	-73
14406	-2221	532	-74	-156	-202	-73
14411	-2157	491	-40	-156	-202	-73
14416	-2090	461	-19	-156	-202	-73
14421	-1974	454	-51	-156	-202	-73
14426	-1955	473	-35	-156	-202	-73
14431	-1938	497	9	-156	-202	-73
14436	-1918	457	-11	-156	-202	-73
14441	-1901	476	-60	-156	-202	-73
14446	-1902	549	-95	-156	-202	-73
14451	-1937	528	-91	-156	-202	-73
14456	-1928	532	-177	-156	-202	-73
14461	-1948	519	-311	-156	-202	-73
14466	-1987	512	-366	-156	-202	-73
14471	-2067	600	-227	-156	-202	-73
14476	-2037	691	-220	-156	-202	-73
14481	-2029	648	-286	-156	-202	-73
14486	-2046	639	-279	-156	-202	-73
14491	-2069	676	-241	-156	-202	-73
14496	-2085	684	-134	-156	-202	-73
14501	-2020	637	-22	-156	-202	-73
14506	-1975	582	46	-156	-202	-73
14511	-1912	503	84	-156	-202	-73
14516	-1819	478	56	-156	-202	-73
14521	-1853	500	-75	-156	-202	-73
14526	-1848	545	-151	-156	-202	-73
14531	-1882	597	-139	-156	-202	-73
14536	-2166	-38	-858	-156	-202	-73
14541	-1899	575	-253	-156	-202	-73
14546	-1973	550	-90	-156	-202	-73
14551	-2053	563	1	-156	-202	-73
14556	-2064	639	35	-156	-202	-73
14561	-2137	589	9	-156	-202	-73
14566	-2078	577	-119	-156	-202	-73
14571	-2091	690	-291	-156	-202	-73
14576	-2055	642	-179	-156	-202	-73
14581	-1991	498	-60	-156	-202	-73
14586	-1863	320	-170	-156	-202	-73
14591	-1894	568	-372	-156	-202	-73
14596	-1934	675	-436	-156	-202	-73
14601	-1930	630	-359	-156	-202	-73
14606	-1870	528	-69	-156	-202	-73
14611	-1932	574	83	-156	-202	-73
14616	-2011	633	44	-156	-202	-73
14621	-1986	583	-147	-156	-202	-73
14626	-2019	599	-130	-156	-202	-73
14631	-2008	559	-48	-156	-202	-73
14636	-1973	591	-119	-156	-202	-73
14641	-1991	736	-32	-156	-202	-73
14646	-2028	784	53	-156	-202	-73
14651	-2017	709	8	-156	-202	-73
14656	-1960	658	16	-156	-202	-73
14661	-1950	629	19	-156	-202	-73
14666	-1945	582	-29	-156	-202	-73
14671	-1937	594	-101	-156	-202	-73
14676	-1968	611	-148	-156	-202	-73
14681	-1939	628	-129	-156	-202	-73
14686	-1930	630	-69	-156	-202	-73
14691	-1979	666	-27	-156	-202	-73
14696	-1969	737	-112	-156	-202	-73
14701	-2001	752	-157	-156	-202	-73
14706	-1995	760	-223	-156	-202	-73
14711	-1974	683	-298	-156	-202	-73
14716	-1949	621	-92	-156	-202	-73
14721	-1894	563	-85	-156	-202	-73
14726	-1939	530	-122	-156	-202	-73
14731	-1915	567	-78	-156	-202	-73
14736	-1917	583	-279	-156	-202	-73
14741	-1925	717	-238	-156	-202	-73
14746	-1973	811	-124	-156	-202	-73
14751	-1985	813	-179	-156	-202	-73
14756	-1960	856	-68	-156	-202	-73
14761	-2045	761	-59	-156	-202	-73
14766	-2023	778	2	-156	-202	-73
14771	-1952	703	36	-156	-202	-73
14776	-1932	652	38	-156	-202	-73
14781	-1896	611	-14	-156	-202	-73
14786	-1903	624	-31	-156	-202	-73
14791	-1927	599	-60	-156	-202	-73
14796	-1914	582	-165	-156	-202	-73
14801	-1923	616	-191	-156	-202	-73
14806	-1902	550	-170	-156	-202	-73
14811	-1891	511	-146	-156	-202	-73
14816	-1878	560	-88	-156	-202	-73
14821	-1867	604	-33	-156	-202	-73
14826	-1885	634	-2	-156	-202	-73
14831	-1923	659	73	-156	-202	-73
14836	-1899	660	90	-156	-202	-73
14841	-1920	733	-27	-156	-202	-73
14846	-1990	833	-225	-156	-202	-73
14851	-2002	778	-325	-156	-202	-73
14856	-1983	704	-208	-156	-202	-73
14861	-2016	770	-256	-156	-202	-73
14866	-2025	801	-414	-156	-202	-73
14871	-2053	767	-251	-156	-202	-73
14876	-2026	738	-99	-156	-202	-73
14881	-1960	687	-139	-156	-202	-73
14886	-1930	658	-113	-156	-202	-73
14891	-1915	635	-27	-156	-202	-73
14896	-1915	640	-83	-156	-202	-73
14901	-2020	562	-135	-156	-202	-73
14906	-1826	732	-368	-156	-202	-73
14911	-2017	696	-60	-156	-202	-73
14916	-1972	734	-159	-156	-202	-73
14921	-1933	749	-235	-156	-202	-73
14926	-1954	666	-352	-156	-202	-73
14931	-1895	696	-304	-156	-202	-73
14936	-1940	675	-342	-156	-202	-73
14941	-1922	675	-310	-156	-202	-73
14946	-1932	693	-268	-156	-202	-73
14951	-1944	709	-199	-156	-202	-73
14956	-1939	657	-200	-156	-202	-73
14961	-1976	643	-203	-156	-202	-73
14966	-1969	741	-198	-156	-202	-73
14971	-1996	732	-163	-156	-202	-73
14976	-1973	645	-311	-156	-202	-73
14981	-1953	622	-373	-156	-202	-73
14986	-1945	601	-337	-156	-202	-73
14991	-1928	658	-313	-156	-202	-73
14996	-1921	698	-350	-156	-202	-73
15001	-1930	735	-336	-156	-202	-73
15006	-1931	720	-299	-156	-202	-73
15011	-1914	699	-240	-156	-202	-73
15016	-1892	670	-112	-156	-202	-73
15021	-1900	673	-89	-156	-202	-73
15026	-1915	698	-132	-156	-202	-73
15031	-1894	686	-232	-156	-202	-73
15036	-1894	662	-260	-156	-202	-73
15041	-1909	645	-264	-156	-202	-73
15046	-1931	666	-182	-156	-202	-73
15051	-1975	618	-318	-156	-202	-73
15056	-1940	640	-378	-156	-202	-73
15061	-1952	648	-201	-156	-202	-73
15066	-1983	658	-146	-156	-202	-73
15071	-1963	722	-107	-156	-202	-73
15076	-1966	727	-143	-156	-202	-73
15081	-1963	731	-117	-156	-202	-73
15086	-1927	717	-113	-156	-202	-73
15091	-1897	676	-142	-156	-202	-73
15096	-1897	653	-101	-156	-202	-73
15101	-1906	641	-191	-156	-202	-73
15106	-1909	655	-254	-156	-202	-73
15111	-1916	690	-289	-156	-202	-73
15116	-1958	721	-276	-156	-202	-73
15121	-1946	762	-209	-156	-202	-73
15126	-1997	741	-165	-156	-202	-73
15131	-2011	758	-176	-156	-202	-73
15136	-1997	798	-151	-156	-202	-73
15141	-1997	747	-155	-156	-202	-73
15146	-1954	684	-128	-156	-202	-73
15151	-1940	627	-161	-156	-202	-73
15156	-1915	590	-125	-156	-202	-73
15161	-1855	651	-182	-156	-202	-73
15166	-1867	676	-241	-156	-202	-73
15171	-1862	695	-83	-156	-202	-73
15176	-1886	753	-158	-156	-202	-73
15181	-1922	807	-95	-156	-202	-73
15186	-1931	824	-87	-156	-202	-73
15191	-1960	814	-178	-156	-202	-73
15196	-1957	763	-277	-156	-202	-73
15201	-2008	704	-297	-156	-202	-73
15206	-1986	678	-279	-156	-202	-73
15211	-1960	701	-223	-156	-202	-73
15216	-1950	765	-170	-156	-202	-73
15221	-1934	803	18	-156	-202	-73
15226	-1910	865	133	-156	-202	-73
15231	-1882	804	274	-156	-202	-73
15236	-1912	745	-3	-156	-202	-73
15241	-1862	711	-26	-156	-202	-73
15246	-1867	717	-42	-156	-202	-73
15251	-1884	713	-118	-156	-202	-73
15256	-1885	704	-95	-248	-212	43
15261	-1895	730	-40	-248	-212	43
15266	-1919	784	-130	-248	-212	43
15271	-1934	788	-233	-248	-212	43
15276	-1948	766	-93	-248	-212	43
15281	-1916	747	115	-248	-212	43
15286	-1924	729	-29	-66	-180	55
15291	-1914	769	32	-66	-180	55
15296	-1936	762	-11	-66	-180	55
15301	-1895	733	-5	-66	-180	55
15306	-1880	719	38	-66	-180	55
15311	-1920	744	68	-66	-180	55
15316	-1903	767	98	-154	-157	19
15321	-1905	800	84	-154	-157	19
15326	-1903	866	70	-154	-157	19
15331	-1928	727	42	-154	-157	19
15336	-1909	756	-24	-154	-157	19
15341	-1882	749	19	-154	-157	19
15346	-1902	743	38	-154	-157	19
15351	-1891	736	10	-13	-122	84
15356	-1888	748	50	-13	-122	84
15361	-1872	753	91	-13	-122	84
15366	-1857	752	97	-13	-122	84
15371	-1868	759	129	-13	-122	84
15376	-1860	778	101	-13	-122	84
15381	-1874	758	95	14	-567	-20
15386	-1904	773	92	14	-567	-20
15391	-1932	828	40	14	-567	-20
15396	-1946	843	61	14	-567	-20
15401	-1940	835	3	14	-567	-20
15406	-1921	815	273	14	-567	-20
15411	-1927	811	210	23	27	-36
15416	-1913	795	243	23	27	-36
15421	-1901	798	202	23	27	-36
15426	-1903	796	172	23	27	-36
15431	-1886	792	165	23	27	-36
15436	-1884	762	148	23	27	-36
15441	-1869	738	94	32	79	-36
15446	-1856	740	165	32	79	-36
15451	-1861	709	169	32	79	-36
15456	-1864	761	122	32	79	-36
15461	-1848	775	150	32	79	-36
15466	-1862	745	150	32	79	-36
15471	-1890	788	110	19	53	15
15476	-1926	809	108	19	53	15
15481	-1935	832	26	19	53	15
15486	-1953	861	19	19	53	15
15491	-1952	861	19	19	53	15
15496	-1950	863	46	19	53	15
15501	-1935	851	86	19	53	15
15506	-1911	809	130	174	-43	-90
15511	-1894	783	165	174	-43	-90
15516	-1871	752	158	174	-43	-90
15521	-1863	775	149	174	-43	-90
15526	-1870	772	152	174	-43	-90
15531	-1843	731	132	174	-43	-90
15536	-1848	738	133	-55	-108	-4
15541	-1867	783	89	-55	-108	-4
15546	-1891	812	64	-55	-108	-4
15551	-1915	823	48	-55	-108	-4
15556	-1892	824	-16	-55	-108	-4
15561	-1864	853	196	-55	-108	-4
15566	-2000	725	217	-29	-182	3
15571	-1865	805	167	-29	-182	3
15576	-1877	803	156	-29	-182	3
15581	-1895	743	123	-29	-182	3
15586	-1854	749	22	-29	-182	3
15591	-1843	755	14	-29	-182	3
15596	-1881	789	88	-17	-3	-1
15601	-1917	821	128	-17	-3	-1
15606	-1914	820	126	-17	-3	-1
15611	-1921	795	128	-17	-3	-1
15616	-1896	767	140	-17	-3	-1
15621	-1897	798	146	-17	-3	-1
15626	-1901	797	172	-50	-58	41
15631	-1888	799	166	-50	-58	41
15636	-1866	780	163	-50	-58	41
15641	-1878	760	136	-50	-58	41
15646	-1880	766	100	-50	-58	41
15651	-1883	760	142	-50	-58	41
15656	-1897	768	156	-50	-58	41
15661	-1902	814	133	38	-124	-46
15666	-1907	688	82	38	-124	-46
15671	-1878	775	176	38	-124	-46
15676	-1903	789	189	38	-124	-46
15681	-1897	777	159	38	-124	-46
15686	-1884	778	137	38	-124	-46
15691	-1883	794	100	-3	-8	-49
15696	-1898	796	88	-3	-8	-49
15701	-1896	748	126	-3	-8	-49
15706	-1859	769	168	-3	-8	-49
15711	-1896	762	149	-3	-8	-49
15716	-1900	762	169	-3	-8	-49
15721	-1875	747	176	104	-7	-89
15726	-1873	723	169	104	-7	-89
15731	-1879	755	164	104	-7	-89
15736	-1873	768	105	104	-7	-89
15741	-1884	768	95	104	-7	-89
15746	-1895	790	110	104	-7	-89
15751	-1869	745	145	114	159	-27
15756	-1888	775	136	114	159	-27
15761	-1874	798	149	114	159	-27
15766	-1884	785	157	114	159	-27
15771	-1872	741	207	114	159	-27
15776	-1867	746	244	114	159	-27
15781	-1847	678	182	56	-141	18
15786	-1860	694	146	56	-141	18
15791	-1870	732	136	56	-141	18
15796	-1880	788	117	56	-141	18
15801	-1962	847	70	56	-141	18
15806	-2002	831	48	56	-141	18
15811	-1889	732	51	56	-141	18
15816	-1942	795	70	60	77	-93
15821	-1925	825	97	60	77	-93
15826	-1943	775	146	60	77	-93
15831	-1919	760	244	60	77	-93
15836	-1878	756	234	60	77	-93
15841	-1884	767	198	60	77	-93
15846	-1850	758	125	-23	-8	-145
15851	-1863	771	66	-23	-8	-145
15856	-1855	747	91	-23	-8	-145
15861	-1838	736	147	-23	-8	-145
15866	-1904	762	197	-23	-8	-145
15871	-1913	765	175	-23	-8	-145
15876	-1887	755	166	45	9	49
15881	-1871	739	158	45	9	49
15886	-1877	747	165	45	9	49
15891	-1887	748	125	45	9	49
15896	-1848	729	97	45	9	49
15901	-1898	782	91	45	9	49
15906	-1925	784	86	5	14	-46
15911	-1921	758	103	5	14	-46
15916	-1940	776	84	5	14	-46
15921	-1955	779	102	5	14	-46
15926	-1969	782	115	5	14	-46
15931	-1954	774	145	5	14	-46
15936	-1968	790	120	77	46	-82
15941	-1948	787	74	77	46	-82
15946	-1949	774	35	77	46	-82
15951	-1942	735	57	77	46	-82
15956	-1929	711	76	77	46	-82
15961	-1925	709	144	77	46	-82
15966	-1885	687	179	77	46	-82
15971	-1817	698	189	-124	-47	-93
15976	-1855	709	224	-124	-47	-93
15981	-1873	736	235	-124	-47	-93
15986	-1851	743	181	-124	-47	-93
15991	-1935	783	80	-124	-47	-93
15996	-1950	803	55	-124	-47	-93
16001	-1955	771	25	-50	4	-52
16006	-1985	769	15	-50	4	-52
16011	-1940	759	83	-50	4	-52
16016	-1897	718	147	-50	4	-52
16021	-1858	709	151	-50	4	-52
16026	-1805	690	152	-50	4	-52
16031	-1802	679	197	-102	36	74
16036	-1802	686	189	-102	36	74
16041	-1848	714	166	-102	36	74
16046	-1900	755	105	-102	36	74
16051	-1936	756	75	-102	36	74
16056	-1961	754	65	-102	36	74
16061	-1944	775	32	12	40	-74
16066	-1957	777	24	12	40	-74
16071	-1952	753	102	12	40	-74
16076	-1916	736	136	12	40	-74
16081	-1900	745	114	12	40	-74
16086	-1932	778	142	12	40	-74
16091	-1882	731	160	-58	-50	5
16096	-1913	766	115	-58	-50	5
16101	-1927	776	78	-58	-50	5
16106	-1939	774	93	-58	-50	5
16111	-1929	754	116	-58	-50	5
16116	-1936	763	95	-58	-50	5
16121	-1927	749	101	-58	-50	5
16126	-1914	731	136	15	-13	-136
16131	-1898	726	164	15	-13	-136
16136	-1885	703	165	15	-13	-136
16141	-1883	737	155	15	-13	-136
16146	-1898	755	118	15	-13	-136
16151	-1929	773	109	15	-13	-136
16156	-1949	785	107	-53	-37	2
16161	-1938	781	94	-53	-37	2
16166	-1944	759	100	-53	-37	2
16171	-1936	749	131	-53	-37	2
16176	-1907	750	139	-53	-37	2
16181	-1883	740	133	-53	-37	2
16186	-1871	740	130	-27	-81	5
16191	-1894	755	103	-27	-81	5
16196	-1885	761	82	-27	-81	5
16201	-1915	750	104	-27	-81	5
16206	-1905	753	137	-27	-81	5
16211	-1909	756	119	-27	-81	5
16216	-1901	713	131	-99	-11	-46
16221	-1888	729	143	-99	-11	-46
16226	-1886	728	167	-99	-11	-46
16231	-1896	730	149	-99	-11	-46
16236	-1895	734	156	-99	-11	-46
16241	-1902	723	144	-99	-11	-46
16246	-1916	737	132	-40	-27	-17
16251	-1923	743	122	-40	-27	-17
16256	-1919	747	120	-40	-27	-17
16261	-1918	753	127	-40	-27	-17
16266	-1902	768	140	-40	-27	-17
16271	-1918	772	140	-40	-27	-17
16276	-1909	786	149	-40	-27	-17
16281	-1886	744	157	-86	-11	-20
16286	-1892	732	162	-86	-11	-20
16291	-1903	733	154	-86	-11	-20
16296	-1909	725	164	-86	-11	-20
16301	-1909	713	156	-86	-11	-20
16306	-1900	728	155	-86	-11	-20
16311	-1913	719	144	-31	22	-48
16316	-1925	728	162	-31	22	-48
16321	-1923	715	156	-31	22	-48
16326	-1919	717	148	-31	22	-48
16331	-1908	747	157	-31	22	-48
16336	-1895	762	128	-31	22	-48
16341	-1905	760	142	-24	14	-60
16346	-1867	731	158	-24	14	-60
16351	-1865	731	155	-24	14	-60
16356	-1863	727	144	-24	14	-60
16361	-1885	727	142	-24	14	-60
16366	-1905	742	130	-24	14	-60
16371	-1932	741	117	-11	-8	58
16376	-1953	744	99	-11	-8	58
16381	-1959	739	130	-11	-8	58
16386	-1939	733	141	-11	-8	58
16391	-1945	743	148	-11	-8	58
16396	-1909	741	146	-11	-8	58
16401	-1895	728	163	-104	3	11
16406	-1890	741	142	-104	3	11
16411	-1897	742	146	-104	3	11
16416	-1891	736	153	-104	3	11
16421	-1892	719	173	-104	3	11
16426	-1880	724	178	-104	3	11
16431	-1893	724	179	-104	3	11
16436	-1889	734	185	-16	-31	47
16441	-1894	719	167	-16	-31	47
16446	-1907	741	138	-16	-31	47
16451	-1915	750	125	-16	-31	47
16456	-1922	742	138	-16	-31	47
16461	-1931	741	127	-16	-31	47
16466	-1919	743	139	-43	-61	-11
16471	-1921	739	159	-43	-61	-11
16476	-1910	732	162	-43	-61	-11
16481	-1911	747	145	-43	-61	-11
16486	-1923	747	150	-43	-61	-11
16491	-1908	742	138	-43	-61	-11
16496	-1911	721	133	-17	33	-32
16501	-1916	715	157	-17	33	-32
16506	-1903	709	161	-17	33	-32
16511	-1904	717	151	-17	33	-32
16516	-1913	720	152	-17	33	-32
16521	-1903	737	139	-17	33	-32
16526	-1903	749	144	-26	-55	-19
16531	-1895	762	137	-26	-55	-19
16536	-1894	762	141	-26	-55	-19
16541	-1890	756	146	-26	-55	-19
16546	-1890	740	158	-26	-55	-19
16551	-1911	743	143	-26	-55	-19
16556	-1913	736	115	-53	3	-46
16561	-1926	723	117	-53	3	-46
16566	-1932	728	135	-53	3	-46
16571	-1935	715	169	-53	3	-46
16576	-1950	732	155	-53	3	-46
16581	-1947	728	139	-53	3	-46
16586	-1962	749	133	-53	3	-46
16591	-1961	740	171	-108	13	-51
16596	-1959	752	148	-108	13	-51
16601	-1970	756	158	-108	13	-51
16606	-1954	746	111	-108	13	-51
16611	-1942	777	108	-108	13	-51
16616	-1954	704	148	-108	13	-51
16621	-1907	724	165	90	32	-300
16626	-1914	759	133	90	32	-300
16631	-1918	745	194	90	32	-300
16636	-1883	720	170	90	32	-300
16641	-1871	687	175	90	32	-300
16646	-1877	690	149	90	32	-300
16651	-1885	680	175	-110	-10	78
16656	-1893	676	164	-110	-10	78
16661	-1916	659	174	-110	-10	78
16666	-1895	699	-35	-110	-10	78
16671	-1916	739	135	-110	-10	78
16676	-1798	675	158	-110	-10	78
16681	-1894	650	122	-79	105	-76
16686	-1874	718	232	-79	105	-76
16691	-1904	780	162	-79	105	-76
16696	-1918	747	187	-79	105	-76
16701	-1859	720	228	-79	105	-76
16706	-1912	693	172	-79	105	-76
16711	-1926	721	155	-118	-53	-108
16716	-1942	728	138	-118	-53	-108
16721	-1954	748	110	-118	-53	-108
16726	-1945	743	119	-118	-53	-108
16731	-1949	727	134	-118	-53	-108
16736	-1934	708	122	-118	-53	-108
16741	-1934	719	132	-118	-53	-108
16746	-1930	687	131	-43	-5	-58
16751	-1921	707	141	-43	-5	-58
16756	-1919	702	156	-43	-5	-58
16761	-1911	686	158	-43	-5	-58
16766	-1907	685	145	-43	-5	-58
16771	-1917	676	127	-43	-5	-58
16776	-1919	693	130	31	-100	-60
16781	-1921	693	148	31	-100	-60
16786	-1934	703	151	31	-100	-60
16791	-1919	710	157	31	-100	-60
16796	-1917	712	149	31	-100	-60
16801	-1887	680	167	31	-100	-60
16806	-1881	672	191	3	-351	-33
16811	-1866	666	180	3	-351	-33
16816	-1871	661	161	3	-351	-33
16821	-1888	683	185	3	-351	-33
16826	-1903	710	183	3	-351	-33
16831	-1933	719	164	3	-351	-33
16836	-1940	731	149	-135	-241	-79
16841	-1938	719	134	-135	-241	-79
16846	-1938	684	140	-135	-241	-79
16851	-1943	682	180	-135	-241	-79
16856	-1935	697	233	-135	-241	-79
16861	-1907	676	248	-135	-241	-79
16866	-1893	655	236	-4	260	-45
16871	-1838	679	0	-4	260	-45
16876	-1892	555	173	-4	260	-45
16881	-1894	600	314	-4	260	-45
16886	-1888	687	232	-4	260	-45
16891	-1915	691	212	-4	260	-45
16896	-1900	691	211	-4	260	-45
16901	-1908	676	180	-90	431	-45
16906	-1889	654	188	-90	431	-45
16911	-1885	641	215	-90	431	-45
16916	-1899	651	194	-90	431	-45
16921	-1932	692	158	-90	431	-45
16926	-1940	734	144	-90	431	-45
16931	-1952	745	117	-85	-119	97
16936	-1969	753	133	-85	-119	97
16941	-1937	729	133	-85	-119	97
16946	-1956	697	161	-85	-119	97
16951	-1926	688	186	-85	-119	97
16956	-1914	689	219	-85	-119	97
16961	-1918	692	181	-88	-84	-114
16966	-1921	722	169	-88	-84	-114
16971	-1928	698	193	-88	-84	-114
16976	-1914	690	188	-88	-84	-114
16981	-1913	707	158	-88	-84	-114
16986	-1923	710	167	-88	-84	-114
16991	-1937	704	107	-33	-91	99
16996	-1937	678	134	-33	-91	99
17001	-1934	645	158	-33	-91	99
17006	-1922	650	148	-33	-91	99
17011	-1909	649	177	-33	-91	99
17016	-1919	665	202	-33	-91	99
17021	-1886	667	202	-48	154	-10
17026	-1887	671	182	-48	154	-10
17031	-1900	686	172	-48	154	-10
17036	-1907	705	160	-48	154	-10
17041	-1923	702	191	-48	154	-10
17046	-1943	704	197	-48	154	-10
17051	-1940	705	154	-48	154	-10
17056	-1930	719	149	-60	42	11
17061	-1915	699	156	-60	42	11
17066	-1899	672	195	-60	42	11
17071	-1894	652	187	-60	42	11
17076	-1887	658	184	-60	42	11
17081	-1905	680	175	-60	42	11
17086	-1915	702	167	-76	75	-10
17091	-1937	705	189	-76	75	-10
17096	-1932	702	172	-76	75	-10
17101	-1934	695	153	-76	75	-10
17106	-1931	683	182	-76	75	-10
17111	-1933	681	184	-76	75	-10
17116	-1919	681	173	-50	-15	-17
17121	-1906	673	179	-50	-15	-17
17126	-1888	668	174	-50	-15	-17
17131	-1893	678	187	-50	-15	-17
17136	-1898	698	169	-50	-15	-17
17141	-1902	694	184	-50	-15	-17
17146	-1908	697	150	3	72	-30
17151	-1922	691	165	3	72	-30
17156	-1933	698	135	3	72	-30
17161	-1925	687	177	3	72	-30
17166	-1924	679	196	3	72	-30
17171	-1920	680	190	3	72	-30
17176	-1906	682	186	-55	-158	-26
17181	-1891	679	176	-55	-158	-26
17186	-1899	696	191	-55	-158	-26
17191	-1920	723	134	-55	-158	-26
17196	-1930	723	146	-55	-158	-26
17201	-1923	704	185	-55	-158	-26
17206	-1929	694	174	-55	-158	-26
17211	-1930	694	206	-40	-264	-13
17216	-1943	711	155	-40	-264	-13
17221	-1945	713	140	-40	-264	-13
17226	-1932	699	159	-40	-264	-13
17231	-1931	685	209	-40	-264	-13
17236	-1910	687	210	-40	-264	-13
17241	-1903	700	174	-76	-198	-162
17246	-1906	699	215	-76	-198	-162
17251	-1898	679	222	-76	-198	-162
17256	-1897	682	186	-76	-198	-162
17261	-1916	678	233	-76	-198	-162
17266	-1917	678	250	-76	-198	-162
17271	-1925	692	248	-52	-532	3
17276	-1927	657	294	-52	-532	3
17281	-1869	667	338	-52	-532	3
17286	-1906	660	271	-52	-532	3
17291	-1867	659	278	-52	-532	3
17296	-1873	682	270	-52	-532	3
17301	-1885	726	178	-103	-101	81
17306	-1824	737	902	-103	-101	81
17311	-1915	687	225	-103	-101	81
17316	-1894	658	243	-103	-101	81
17321	-1924	697	227	-103	-101	81
17326	-1919	702	279	-103	-101	81
17331	-1902	668	305	-14	-11	-80
17336	-1895	659	319	-14	-11	-80
17341	-1877	662	338	-14	-11	-80
17346	-1873	649	363	-14	-11	-80
17351	-1895	682	308	-14	-11	-80
17356	-1894	675	298	-14	-11	-80
17361	-1895	664	291	-14	-11	-80
17366	-1898	674	288	-95	331	61
17371	-1912	681	261	-95	331	61
17376	-1886	697	342	-95	331	61
17381	-1914	713	386	-95	331	61
17386	-1905	693	185	-95	331	61
17391	-1898	650	188	-95	331	61
17396	-1878	675	326	-51	221	5
17401	-1894	699	297	-51	221	5
17406	-1878	721	253	-51	221	5
17411	-1882	697	289	-51	221	5
17416	-1889	687	288	-51	221	5
17421	-1883	647	323	-51	221	5
17426	-1904	681	230	-35	-121	-42
17431	-1914	710	264	-35	-121	-42
17436	-1938	711	247	-35	-121	-42
17441	-1939	755	235	-35	-121	-42
17446	-1927	741	256	-35	-121	-42
17451	-1932	716	250	-35	-121	-42
17456	-1922	716	211	-64	-259	-41
17461	-1906	711	269	-64	-259	-41
17466	-1900	692	227	-64	-259	-41
17471	-1890	697	218	-64	-259	-41
17476	-1861	665	316	-64	-259	-41
17481	-1859	646	303	-64	-259	-41
17486	-1854	644	318	-27	39	19
17491	-1859	681	318	-27	39	19
17496	-1885	711	314	-27	39	19
17501	-1902	725	260	-27	39	19
17506	-1941	723	297	-27	39	19
17511	-1931	687	306	-27	39	19
17516	-1920	701	292	-27	39	19
17521	-1923	693	294	-18	99	-131
17526	-1909	674	297	-18	99	-131
17531	-1912	708	299	-18	99	-131
17536	-1887	695	316	-18	99	-131
17541	-1871	676	297	-18	99	-131
17546	-1866	677	311	-18	99	-131
17551	-1862	691	298	-66	3	91
17556	-1862	704	297	-66	3	91
17561	-1865	701	313	-66	3	91
17566	-1872	724	286	-66	3	91
17571	-1890	694	287	-66	3	91
17576	-1880	709	279	-66	3	91
17581	-1894	722	285	-20	-17	-29
17586	-1900	731	286	-20	-17	-29
17591	-1903	727	297	-20	-17	-29
17596	-1905	701	262	-20	-17	-29
17601	-1885	703	342	-20	-17	-29
17606	-1942	674	292	-20	-17	-29
17611	-1912	711	268	-59	-27	28
17616	-1915	684	262	-59	-27	28
17621	-1924	691	340	-59	-27	28
17626	-1877	682	288	-59	-27	28
17631	-1887	706	297	-59	-27	28
17636	-1879	712	268	-59	-27	28
17641	-1902	720	251	-60	22	104
17646	-1892	724	255	-60	22	104
17651	-1908	704	244	-60	22	104
17656	-1899	709	247	-60	22	104
17661	-1918	674	296	-60	22	104
17666	-1896	697	283	-60	22	104
17671	-1934	723	168	-60	22	104
17676	-1875	700	269	-57	-131	-39
17681	-1881	660	264	-57	-131	-39
17686	-1853	673	267	-57	-131	-39
17691	-1849	691	326	-57	-131	-39
17696	-1861	714	327	-57	-131	-39
17701	-1894	715	345	-57	-131	-39
17706	-1906	718	356	-113	68	36
17711	-1901	682	344	-113	68	36
17716	-1891	674	331	-113	68	36
17721	-1872	691	319	-113	68	36
17726	-1885	704	341	-113	68	36
17731	-1850	725	333	-113	68	36
17736	-1857	744	298	-92	159	-85
17741	-1868	735	284	-92	159	-85
17746	-1901	739	303	-92	159	-85
17751	-1913	728	263	-92	159	-85
17756	-1940	752	246	-92	159	-85
17761	-1942	737	221	-92	159	-85
17766	-1938	724	264	-28	-5	49
17771	-1887	681	301	-28	-5	49
17776	-1817	657	271	-28	-5	49
17781	-1868	658	274	-28	-5	49
17786	-1819	705	305	-28	-5	49
17791	-1870	716	325	-28	-5	49
17796	-1915	705	338	-62	200	-10
17801	-1927	747	292	-62	200	-10
17806	-1936	761	287	-62	200	-10
17811	-1929	698	257	-62	200	-10
17816	-1859	665	294	-62	200	-10
17821	-1885	667	321	-62	200	-10
17826	-1854	688	339	-62	200	-10
17831	-1851	697	310	-52	-35	6
17836	-1886	703	324	-52	-35	6
17841	-1910	720	285	-52	-35	6
17846	-1920	766	261	-52	-35	6
17851	-1960	804	186	-52	-35	6
17856	-1969	806	148	-52	-35	6
17861	-1949	768	161	-95	122	-102
17866	-1957	732	232	-95	122	-102
17871	-1904	690	249	-95	122	-102
17876	-1897	672	270	-95	122	-102
17881	-1872	648	324	-95	122	-102
17886	-1850	639	342	-95	122	-102
17891	-1864	656	318	-34	-34	77
17896	-1887	689	285	-34	-34	77
17901	-1869	691	246	-34	-34	77
17906	-1897	731	233	-34	-34	77
17911	-1919	730	211	-34	-34	77
17916	-1916	728	199	-34	-34	77
17921	-1922	710	227	-52	-40	-5
17926	-1906	711	242	-52	-40	-5
17931	-1916	702	267	-52	-40	-5
17936	-1898	695	293	-52	-40	-5
17941	-1857	711	269	-52	-40	-5
17946	-1889	710	243	-52	-40	-5
17951	-1907	700	251	-101	-51	-17
17956	-1896	712	239	-101	-51	-17
17961	-1926	714	248	-101	-51	-17
17966	-1927	728	270	-101	-51	-17
17971	-1922	698	255	-101	-51	-17
17976	-1896	694	271	-101	-51	-17
17981	-1892	676	292	-101	-51	-17
17986	-1854	694	303	-140	4	-68
17991	-1877	710	289	-140	4	-68
17996	-1881	720	295	-140	4	-68
18001	-1918	703	293	-140	4	-68
18006	-1914	702	248	-140	4	-68
18011	-1890	713	257	-140	4	-68
18016	-1878	701	265	-17	-21	-102
18021	-1903	710	276	-17	-21	-102
18026	-1900	700	273	-17	-21	-102
18031	-1880	718	256	-17	-21	-102
18036	-1900	692	284	-17	-21	-102
18041	-1929	688	281	-17	-21	-102
18046	-1925	678	258	-190	89	53
18051	-1934	720	244	-190	89	53
18056	-1968	712	212	-190	89	53
18061	-2004	682	270	-190	89	53
18066	-1902	680	240	-190	89	53
18071	-1868	666	316	-190	89	53
18076	-1840	655	327	-95	-64	-74
18081	-1784	730	311	-95	-64	-74
18086	-1896	689	282	-95	-64	-74
18091	-1851	740	254	-95	-64	-74
18096	-1931	725	245	-95	-64	-74
18101	-1938	727	176	-95	-64	-74
18106	-1982	725	228	-27	92	18
18111	-1943	694	262	-27	92	18
18116	-1868	701	261	-27	92	18
18121	-1886	615	344	-27	92	18
18126	-1838	620	355	-27	92	18
18131	-1879	649	346	-27	92	18
18136	-1868	637	322	-27	92	18
18141	-1883	667	333	-32	0	5
18146	-1912	708	246	-32	0	5
18151	-1928	763	268	-32	0	5
18156	-1955	761	269	-32	0	5
18161	-1964	791	238	-32	0	5
18166	-1993	799	225	-32	0	5
18171	-1979	681	269	-66	147	-41
18176	-1909	697	338	-66	147	-41
18181	-1877	678	318	-66	147	-41
18186	-1807	659	317	-66	147	-41
18191	-1788	687	306	-66	147	-41
18196	-1796	712	266	-66	147	-41
18201	-1828	712	248	-63	-5	82
18206	-1849	767	247	-63	-5	82
18211	-1958	749	214	-63	-5	82
18216	-1983	762	201	-63	-5	82
18221	-2036	772	170	-63	-5	82
18226	-1991	776	172	-63	-5	82
18231	-1980	725	192	-56	0	58
18236	-1927	685	213	-56	0	58
18241	-1774	656	240	-56	0	58
18246	-1749	654	292	-56	0	58
18251	-1753	664	348	-56	0	58
18256	-1781	685	296	-56	0	58
18261	-1861	705	271	-32	-42	59
18266	-1908	753	220	-32	-42	59
18271	-1979	792	195	-32	-42	59
18276	-2001	777	216	-32	-42	59
18281	-1982	780	247	-32	-42	59
18286	-1957	733	246	-32	-42	59
18291	-1925	695	269	-32	-42	59
18296	-1853	678	301	-73	18	-27
18301	-1835	674	311	-73	18	-27
18306	-1818	680	350	-73	18	-27
18311	-1827	691	323	-73	18	-27
18316	-1907	732	266	-73	18	-27
18321	-1926	776	248	-73	18	-27
18326	-1965	779	239	-50	48	-83
18331	-1976	778	262	-50	48	-83
18336	-1960	762	275	-50	48	-83
18341	-1923	728	275	-50	48	-83
18346	-1887	720	282	-50	48	-83
18351	-1843	699	291	-50	48	-83
18356	-1825	689	285	-56	43	-65
18361	-1839	711	298	-56	43	-65
18366	-1861	722	282	-56	43	-65
18371	-1894	733	267	-56	43	-65
18376	-1897	729	260	-56	43	-65
18381	-1912	709	265	-56	43	-65
18386	-1904	692	259	-40	70	112
18391	-1888	684	254	-40	70	112
18396	-1880	680	288	-40	70	112
18401	-1881	668	290	-40	70	112
18406	-1901	695	267	-40	70	112
18411	-1906	707	251	-40	70	112
18416	-1926	709	247	-70	-10	-71
18421	-1926	725	217	-70	-10	-71
18426	-1931	732	231	-70	-10	-71
18431	-1917	736	219	-70	-10	-71
18436	-1931	734	238	-70	-10	-71
18441	-1934	749	216	-70	-10	-71
18446	-1966	751	214	-70	-10	-71
18451	-1943	739	250	-35	-31	33
18456	-1928	720	264	-35	-31	33
18461	-1918	714	264	-35	-31	33
18466	-1890	697	284	-35	-31	33
18471	-1858	703	284	-35	-31	33
18476	-1849	709	267	-35	-31	33
18481	-1858	705	282	-65	94	50
18486	-1872	716	258	-65	94	50
18491	-1866	708	274	-65	94	50
18496	-1888	716	249	-65	94	50
18501	-1886	720	240	-65	94	50
18506	-1876	706	267	-65	94	50
18511	-1851	695	271	-33	-18	-35
18516	-1845	711	277	-33	-18	-35
18521	-1857	726	237	-33	-18	-35
18526	-1900	746	229	-33	-18	-35
18531	-1910	733	209	-33	-18	-35
18536	-1941	745	189	-33	-18	-35
18541	-1952	741	196	-40	-93	19
18546	-1941	736	214	-40	-93	19
18551	-1926	714	254	-40	-93	19
18556	-1911	689	264	-40	-93	19
18561	-1879	663	287	-40	-93	19
18566	-1873	673	281	-40	-93	19
18571	-1865	661	293	-36	13	-74
18576	-1879	681	267	-36	13	-74
18581	-1893	699	263	-36	13	-74
18586	-1898	719	238	-36	13	-74
18591	-1938	742	206	-36	13	-74
18596	-1943	741	217	-36	13	-74
18601	-1925	726	234	-36	13	-74
18606	-1912	711	257	-29	36	-14
18611	-1895	679	284	-29	36	-14
18616	-1909	677	251	-29	36	-14
18621	-1904	694	259	-29	36	-14
18626	-1893	685	258	-29	36	-14
18631	-1893	700	266	-29	36	-14
18636	-1912	717	241	-21	13	-90
18641	-1916	722	250	-21	13	-90
18646	-1915	718	266	-21	13	-90
18651	-1900	714	279	-21	13	-90
18656	-1877	693	264	-21	13	-90
18661	-1855	690	280	-21	13	-90
18666	-1849	696	265	-17	43	131
18671	-1866	694	249	-17	43	131
18676	-1867	693	241	-17	43	131
18681	-1876	710	220	-17	43	131
18686	-1914	710	230	-17	43	131
18691	-1933	717	236	-17	43	131
18696	-1930	711	257	61	-25	-106
18701	-1920	709	254	61	-25	-106
18706	-1918	708	252	61	-25	-106
18711	-1919	728	223	61	-25	-106
18716	-1912	726	255	61	-25	-106
18721	-1914	695	268	61	-25	-106
18726	-1924	704	261	66	-31	-120
18731	-1935	743	238	66	-31	-120
18736	-1968	742	233	66	-31	-120
18741	-1983	738	230	66	-31	-120
18746	-1991	742	234	66	-31	-120
18751	-2001	724	263	66	-31	-120
18756	-1993	718	267	66	-31	-120
18761	-1994	704	263	116	63	-82
18766	-1951	683	283	116	63	-82
18771	-1922	643	303	116	63	-82
18776	-1895	611	310	116	63	-82
18781	-1837	642	301	116	63	-82
18786	-1843	614	270	116	63	-82
18791	-1803	627	319	68	134	77
18796	-1747	629	327	68	134	77
18801	-1782	653	270	68	134	77
18806	-1916	589	306	68	134	77
18811	-1837	671	275	68	134	77
18816	-1857	688	250	68	134	77
18821	-1915	699	214	-100	353	147
18826	-1971	687	200	-100	353	147
18831	-1944	674	190	-100	353	147
18836	-1925	699	95	-100	353	147
18841	-1968	652	96	-100	353	147
18846	-1898	597	20	-100	353	147
18851	-1927	706	82	-2	-49	-167
18856	-1943	807	98	-2	-49	-167
18861	-1971	820	20	-2	-49	-167
18866	-1984	808	149	-2	-49	-167
18871	-1961	869	215	-2	-49	-167
18876	-2007	811	186	-2	-49	-167
18881	-1967	766	221	-143	-48	6
18886	-1931	738	185	-143	-48	6
18891	-1915	676	218	-143	-48	6
18896	-1877	622	194	-143	-48	6
18901	-1857	608	157	-143	-48	6
18906	-1896	677	142	-143	-48	6
18911	-1856	711	127	-143	-48	6
18916	-1918	737	108	-30	-673	-240
18921	-1921	789	138	-30	-673	-240
18926	-1952	753	189	-30	-673	-240
18931	-1928	739	218	-30	-673	-240
18936	-1921	727	208	-30	-673	-240
18941	-1895	686	223	-30	-673	-240
18946	-1884	648	241	-111	-101	84
18951	-1874	632	229	-111	-101	84
18956	-1895	656	229	-111	-101	84
18961	-1893	674	232	-111	-101	84
18966	-1907	678	200	-111	-101	84
18971	-1917	551	133	-111	-101	84
18976	-1892	621	217	-65	7	-112
18981	-1919	684	259	-65	7	-112
18986	-1932	707	310	-65	7	-112
18991	-1932	726	329	-65	7	-112
18996	-1914	697	331	-65	7	-112
19001	-1920	723	276	-65	7	-112
19006	-1901	655	259	-40	-67	21
19011	-1914	646	232	-40	-67	21
19016	-1905	664	221	-40	-67	21
19021	-1905	700	268	-40	-67	21
19026	-1922	720	259	-40	-67	21
19031	-1916	753	273	-40	-67	21
19036	-1920	735	277	-57	2028	33
19041	-1911	722	284	-57	2028	33
19046	-1887	687	309	-57	2028	33
19051	-1874	680	357	-57	2028	33
19056	-1786	289	1058	-57	2028	33
19061	-1800	634	494	-57	2028	33
19066	-1831	655	207	-57	2028	33
19071	-1860	672	52	-66	56	-112
19076	-1900	684	-121	-66	56	-112
19081	-1930	738	-53	-66	56	-112
19086	-1926	766	249	-66	56	-112
19091	-1952	779	275	-66	56	-112
19096	-1971	754	132	-66	56	-112
19101	-1966	729	91	-62	-11	27
19106	-1956	685	196	-62	-11	27
19111	-1923	663	158	-62	-11	27
19116	-1915	642	170	-62	-11	27
19121	-1888	643	215	-62	-11	27
19126	-1890	645	190	-62	-11	27
19131	-1894	662	207	-124	34	2
19136	-1885	687	215	-124	34	2
19141	-1888	700	177	-124	34	2
19146	-1891	714	186	-124	34	2
19151	-1904	713	164	-124	34	2
19156	-1910	705	140	-124	34	2
19161	-1903	696	173	-2	106	-104
19166	-1916	707	188	-2	106	-104
19171	-1906	717	205	-2	106	-104
19176	-1906	712	220	-2	106	-104
19181	-1907	707	213	-2	106	-104
19186	-1900	691	205	-2	106	-104
19191	-1900	705	235	-38	136	-114
19196	-1904	726	254	-38	136	-114
19201	-1936	753	168	-38	136	-114
19206	-1947	767	139	-38	136	-114
19211	-1950	730	167	-38	136	-114
19216	-1938	682	154	-38	136	-114
19221	-1942	650	174	-38	136	-114
19226	-1934	647	170	-215	-48	-11
19231	-1916	629	138	-215	-48	-11
19236	-1900	612	158	-215	-48	-11
19241	-1895	600	180	-215	-48	-11
19246	-1925	599	120	-215	-48	-11
19251	-1868	641	108	-215	-48	-11
19256	-1919	621	163	-27	63	-189
19261	-1946	697	119	-27	63	-189
19266	-1978	746	111	-27	63	-189
19271	-1987	750	164	-27	63	-189
19276	-1988	738	143	-27	63	-189
19281	-1975	732	141	-27	63	-189
19286	-1953	700	160	-4	220	-20
19291	-1923	672	181	-4	220	-20
19296	-1891	638	170	-4	220	-20
19301	-1872	628	159	-4	220	-20
19306	-1843	618	172	-4	220	-20
19311	-1849	623	160	-4	220	-20
19316	-1865	639	123	-31	18	-41
19321	-1887	630	76	-31	18	-41
19326	-1906	629	66	-31	18	-41
19331	-1921	629	75	-31	18	-41
19336	-1931	680	49	-31	18	-41
19341	-1958	693	73	-31	18	-41
19346	-1964	709	131	-14	127	-149
19351	-1955	700	152	-14	127	-149
19356	-1970	716	114	-14	127	-149
19361	-1976	709	118	-14	127	-149
19366	-1976	711	88	-14	127	-149
19371	-1975	690	81	-14	127	-149
19376	-1977	678	116	-14	127	-149
19381	-1974	677	100	-115	35	-8
19386	-1978	693	73	-115	35	-8
19391	-1973	710	68	-115	35	-8
19396	-1979	708	68	-115	35	-8
19401	-1969	697	81	-115	35	-8
19406	-1956	683	102	-115	35	-8
19411	-1943	671	116	-119	-17	-33
19416	-1940	658	100	-119	-17	-33
19421	-1925	652	115	-119	-17	-33
19426	-1925	657	80	-119	-17	-33
19431	-1921	616	84	-119	-17	-33
19436	-1921	604	96	-119	-17	-33
19441	-1945	608	99	-86	16	-57
19446	-1949	625	85	-86	16	-57
19451	-1955	635	67	-86	16	-57
19456	-1951	646	84	-86	16	-57
19461	-1945	641	65	-86	16	-57
19466	-1954	634	33	-86	16	-57
19471	-1925	624	76	-66	96	-41
19476	-1920	617	98	-66	96	-41
19481	-1915	594	94	-66	96	-41
19486	-1906	595	116	-66	96	-41
19491	-1903	606	115	-66	96	-41
19496	-1907	617	133	-66	96	-41
19501	-1907	601	142	-31	207	15
19506	-1901	612	142	-31	207	15
19511	-1908	625	129	-31	207	15
19516	-1903	629	110	-31	207	15
19521	-1903	602	85	-31	207	15
19526	-1905	586	62	-31	207	15
19531	-1903	576	73	-31	207	15
19536	-1902	571	97	-140	174	-77
19541	-1905	597	96	-140	174	-77
19546	-1931	617	92	-140	174	-77
19551	-1908	631	101	-140	174	-77
19556	-1908	642	102	-140	174	-77
19561	-1893	671	105	-140	174	-77
19566	-1892	673	94	48	379	74
19571	-1907	662	154	48	379	74
19576	-1875	656	170	48	379	74
19581	-1870	663	119	48	379	74
19586	-1905	651	100	48	379	74
19591	-1896	634	122	48	379	74
19596	-1926	663	86	601	815	-44
19601	-1877	566	175	601	815	-44
19606	-1803	601	122	601	815	-44
19611	-1857	606	81	601	815	-44
19616	-1916	608	22	601	815	-44
19621	-1939	623	-95	601	815	-44
19626	-1968	631	-75	616	1065	39
19631	-1978	626	-116	616	1065	39
19636	-1975	612	-141	616	1065	39
19641	-1906	587	137	616	1065	39
19646	-1969	596	-101	616	1065	39
19651	-1880	722	-203	616	1065	39
19656	-1945	725	-88	421	989	138
19661	-1856	674	-115	421	989	138
19666	-1808	641	-172	421	989	138
19671	-1850	734	-302	421	989	138
19676	-1858	670	-294	421	989	138
19681	-1824	680	-395	421	989	138
19686	-1956	715	-407	421	989	138
19691	-1927	771	-513	77	822	-16
19696	-1953	763	-573	77	822	-16
19701	-1968	780	-663	77	822	-16
19706	-2005	818	-698	77	822	-16
19711	-2043	845	-719	77	822	-16
19716	-2053	884	-753	77	822	-16
19721	-1958	759	-540	-56	277	112
19726	-2016	796	-503	-56	277	112
19731	-1987	597	-667	-56	277	112
19736	-1820	603	-788	-56	277	112
19741	-1978	613	-892	-56	277	112
19746	-1882	756	-901	-56	277	112
19751	-1886	779	-807	-78	450	-143
19756	-1901	733	-748	-78	450	-143
19761	-1868	717	-681	-78	450	-143
19766	-1870	711	-651	-78	450	-143
19771	-1872	712	-617	-78	450	-143
19776	-1870	690	-562	-78	450	-143
19781	-1872	661	-501	-93	533	91
19786	-1805	590	-613	-93	533	91
19791	-1839	579	-587	-93	533	91
19796	-1747	706	-783	-93	533	91
19801	-1782	713	-782	-93	533	91
19806	-1857	721	-760	-93	533	91
19811	-1805	764	-741	-109	531	77
19816	-1820	758	-826	-109	531	77
19821	-1845	731	-830	-109	531	77
19826	-1825	737	-869	-109	531	77
19831	-1834	708	-822	-109	531	77
19836	-1870	657	-794	-109	531	77
19841	-1840	634	-776	-109	531	77
19846	-1797	637	-785	-20	462	61
19851	-1803	643	-779	-20	462	61
19856	-1820	660	-817	-20	462	61
19861	-1871	784	-940	-20	462	61
19866	-1788	807	-936	-20	462	61
19871	-1813	805	-987	-20	462	61
19876	-1843	757	-946	-44	481	-58
19881	-1780	716	-959	-44	481	-58
19886	-1800	663	-908	-44	481	-58
19891	-1787	596	-885	-44	481	-58
19896	-1748	516	-874	-44	481	-58
19901	-1741	555	-834	-44	481	-58
19906	-1738	591	-840	-459	340	-104
19911	-1747	626	-880	-459	340	-104
19916	-1787	687	-906	-459	340	-104
19921	-1770	699	-884	-459	340	-104
19926	-1773	661	-913	-459	340	-104
19931	-1763	655	-917	-459	340	-104
19936	-1751	642	-956	-1336	374	-36
19941	-1765	592	-976	-1336	374	-36
19946	-1782	622	-991	-1336	374	-36
19951	-1823	622	-975	-1336	374	-36
19956	-1812	618	-951	-1336	374	-36
19961	-1866	615	-905	-1336	374	-36
19966	-1887	647	-860	-203	-532	-990
19971	-1798	699	-882	-203	-532	-990
19976	-1778	649	-846	-203	-532	-990
19981	-1397	1013	-683	-203	-532	-990
19986	-1727	774	-1155	-203	-532	-990
19991	-1321	-210	-685	-203	-532	-990
19996	-1776	863	-1122	-203	-532	-990
20001	-2120	756	-1203	-1571	-1245	-2044
20006	-800	415	-249	-1571	-1245	-2044
20011	-1450	440	-607	-1571	-1245	-2044
20016	-1968	594	-1080	-1571	-1245	-2044
20021	-2109	374	-718	-1571	-1245	-2044
20026	-2061	427	-763	-1571	-1245	-2044
20031	-1956	496	-836	134	-38	-553
20036	-2090	565	-958	134	-38	-553
20041	-2150	463	-870	134	-38	-553
20046	-2068	474	-866	134	-38	-553
20051	-1893	561	-920	134	-38	-553
20056	-2035	268	-638	134	-38	-553
20061	-2113	170	-643	-485	-545	-813
20066	-1923	218	-697	-485	-545	-813
20071	-1844	281	-826	-485	-545	-813
20076	-1883	371	-879	-485	-545	-813
20081	-1835	355	-897	-485	-545	-813
20086	-1837	313	-895	-485	-545	-813
20091	-1766	256	-853	448	-1037	-577
20096	-1655	98	-754	448	-1037	-577
20101	-1532	347	-638	448	-1037	-577
20106	-2022	537	-1048	448	-1037	-577
20111	-2384	122	-850	448	-1037	-577
20116	-2525	-36	-796	448	-1037	-577
20121	-2458	-52	-489	616	496	619
20126	-2225	-128	-402	616	496	619
20131	-2106	23	-413	616	496	619
20136	-2054	-637	388	616	496	619
20141	-2047	332	-601	616	496	619
20146	-2166	139	-837	616	496	619
20151	-2323	-90	-536	616	496	619
20156	-2317	-79	-479	-872	-301	-675
20161	-2153	20	-480	-872	-301	-675
20166	-2043	70	-393	-872	-301	-675
20171	-2025	99	-474	-872	-301	-675
20176	-1962	121	-462	-872	-301	-675
20181	-2011	149	-619	-872	-301	-675
20186	-2017	84	-579	-1159	-336	-531
20191	-1972	118	-538	-1159	-336	-531
20196	-2011	-46	-427	-1159	-336	-531
20201	-2054	111	-366	-1159	-336	-531
20206	-2034	193	-137	-1159	-336	-531
20211	-1961	154	-105	-1159	-336	-531
20216	-1985	157	39	-1004	1252	-95
20221	-1944	136	-33	-1004	1252	-95
20226	-1948	103	-85	-1004	1252	-95
20231	-1960	35	-101	-1004	1252	-95
20236	-1995	-89	-244	-1004	1252	-95
20241	-1937	-156	-426	-1004	1252	-95
20246	-1886	-176	-634	57	60	917
20251	-1892	-112	-794	57	60	917
20256	-1946	-283	-1070	57	60	917
20261	-1928	-33	-1143	57	60	917
20266	-1862	43	-996	57	60	917
20271	-1957	-25	-796	57	60	917
20276	-2003	-42	-559	-869	-435	1005
20281	-2034	38	-454	-869	-435	1005
20286	-2060	377	-544	-869	-435	1005
20291	-2217	237	-719	-869	-435	1005
20296	-2230	174	-728	-869	-435	1005
20301	-2107	375	-665	-869	-435	1005
20306	-2037	362	-718	-869	-435	1005
20311	-1975	316	-742	-886	652	425
20316	-2011	281	-574	-886	652	425
20321	-2051	424	-492	-886	652	425
20326	-2153	609	-486	-886	652	425
20331	-2140	261	196	-886	652	425
20336	-2112	1108	-233	-886	652	425
20341	-2026	657	-1025	-193	111	279
20346	-2052	373	-878	-193	111	279
20351	-1992	833	-976	-193	111	279
20356	-1889	392	-841	-193	111	279
20361	-1887	448	-755	-193	111	279
20366	-1842	429	-590	-193	111	279
20371	-1895	419	-470	-437	-823	642
20376	-1768	419	-469	-437	-823	642
20381	-1705	517	-703	-437	-823	642
20386	-1802	410	-877	-437	-823	642
20391	-1830	532	-948	-437	-823	642
20396	-1833	638	-1122	-437	-823	642
20401	-1896	703	-949	-111	96	339
20406	-2129	478	-335	-111	96	339
20411	-2021	1015	-404	-111	96	339
20416	-1964	788	-830	-111	96	339
20421	-1967	829	-838	-111	96	339
20426	-1866	793	-875	-111	96	339
20431	-1813	802	-716	-218	550	-153
20436	-1847	763	-692	-218	550	-153
20441	-1845	787	-655	-218	550	-153
20446	-1784	851	-870	-218	550	-153
20451	-1627	996	-908	-218	550	-153
20456	-1714	843	-535	-218	550	-153
20461	-1843	705	-325	-218	550	-153
20466	-1845	724	-366	-138	1148	210
20471	-1807	736	-402	-138	1148	210
20476	-1800	776	-451	-138	1148	210
20481	-1821	806	-594	-138	1148	210
20486	-1826	798	-738	-138	1148	210
20491	-1771	968	-989	-138	1148	210
20496	-1783	931	-993	-507	159	-356
20501	-1731	842	-1015	-507	159	-356
20506	-1871	992	-986	-507	159	-356
20511	-2023	874	-855	-507	159	-356
20516	-1995	751	-676	-507	159	-356
20521	-1852	718	-647	-507	159	-356
20526	-1765	795	-832	8	-463	-240
20531	-1687	839	-873	8	-463	-240
20536	-1729	720	-844	8	-463	-240
20541	-1748	733	-735	8	-463	-240
20546	-1712	748	-744	8	-463	-240
20551	-1678	690	-590	8	-463	-240
20556	-1680	683	-540	-265	-172	6
20561	-1722	680	-448	-265	-172	6
20566	-1775	659	-367	-265	-172	6
20571	-1722	578	-409	-265	-172	6
20576	-1586	792	-589	-265	-172	6
20581	-1566	785	-649	-265	-172	6
20586	-1603	954	-688	-137	-739	-155
20591	-1663	742	-643	-137	-739	-155
20596	-1712	746	-615	-137	-739	-155
20601	-1823	789	-664	-137	-739	-155
20606	-1921	842	-562	-137	-739	-155
20611	-2044	802	-444	-137	-739	-155
20616	-1926	893	-541	-137	-739	-155
20621	-1179	1374	-337	433	-809	162
20626	-2004	709	-895	433	-809	162
20631	-1900	803	-736	433	-809	162
20636	-1996	837	-719	433	-809	162
20641	-1917	912	-741	433	-809	162
20646	-1919	778	-590	433	-809	162
20651	-1821	861	-292	539	-379	75
20656	-2095	995	-436	539	-379	75
20661	-1701	1802	784	539	-379	75
20666	-4666	-1973	-4576	539	-379	75
20671	-2020	1869	-562	539	-379	75
20676	-2128	567	-806	539	-379	75
20681	-1786	829	-621	-1608	-888	-44
20686	-2250	913	-310	-1608	-888	-44
20691	-2329	655	-244	-1608	-888	-44
20696	-2359	603	-382	-1608	-888	-44
20701	-1889	900	-351	-1608	-888	-44
20706	-2333	833	-99	-1608	-888	-44
20711	-1355	618	-261	175	353	198
20716	-1913	882	-308	175	353	198
20721	-1943	677	-251	175	353	198
20726	-1978	721	-355	175	353	198
20731	-1971	775	-406	175	353	198
20736	-1989	797	-425	175	353	198
20741	-2137	767	-482	813	675	591
20746	-1533	886	-643	813	675	591
20751	-2004	920	-396	813	675	591
20756	-2598	876	-572	813	675	591
20761	-2017	751	-307	813	675	591
20766	-1500	665	-873	813	675	591
20771	-2334	566	-571	813	675	591
20776	-1628	735	-616	334	-14	289
20781	-1096	487	-728	334	-14	289
20786	-1932	582	-246	334	-14	289
20791	-2051	896	-444	334	-14	289
20796	-1651	782	-671	334	-14	289
20801	-1470	678	-554	334	-14	289
20806	-1811	598	-551	898	2229	-669
20811	-1931	782	-638	898	2229	-669
20816	-3287	2429	-1202	898	2229	-669
20821	-3652	157	-450	898	2229	-669
20826	-2461	-858	-1033	898	2229	-669
20831	9838	9699	-1840	898	2229	-669
20836	-1443	763	764	-277	-32	241
20841	-1617	376	-525	-277	-32	241
20846	-1757	688	-663	-277	-32	241
20851	-1824	966	-620	-277	-32	241
20856	-1777	656	-422	-277	-32	241
20861	-1754	821	-746	-277	-32	241
20866	-1763	747	-732	-99	367	-341
20871	-1652	924	-987	-99	367	-341
20876	-1720	783	-787	-99	367	-341
20881	-1781	741	-748	-99	367	-341
20886	-1766	730	-594	-99	367	-341
20891	-1593	556	-897	-99	367	-341
20896	-1646	582	-840	1133	2701	-2567
20901	-1787	991	-951	1133	2701	-2567
20906	-1949	590	-773	1133	2701	-2567
20911	-1834	1052	-754	1133	2701	-2567
20916	-1897	791	-728	1133	2701	-2567
20921	-2129	414	-769	1133	2701	-2567
20926	-2771	622	-168	1133	2701	-2567
20931	-1758	522	-754	923	611	160
20936	-1689	702	-625	923	611	160
20941	-2060	580	-413	923	611	160
20946	-1816	673	-582	923	611	160
20951	-2109	76	410	923	611	160
20956	-2161	1063	-1032	923	611	160
20961	-1729	820	-821	873	583	160
20966	-1942	791	-1158	873	583	160
20971	-1703	1056	-1020	873	583	160
20976	-1589	694	-441	873	583	160
20981	-1480	785	-736	873	583	160
20986	-1510	659	-809	873	583	160
20991	-1622	755	-514	-629	852	742
20996	-1500	-500	-1261	-629	852	742
21001	-1631	646	-694	-629	852	742
21006	-1931	-228	-952	-629	852	742
21011	-1333	1728	-1833	-629	852	742
21016	-1935	918	-441	-629	852	742
21021	-1454	402	-590	434	313	-451
21026	-1647	714	-1002	434	313	-451
21031	-1675	838	-966	434	313	-451
21036	-1627	871	-907	434	313	-451
21041	-1643	860	-901	434	313	-451
21046	-1608	772	-805	434	313	-451
21051	-1464	424	-636	594	263	-947
21056	-1746	1136	-1042	594	263	-947
21061	-1963	1251	-1287	594	263	-947
21066	-1721	892	-1001	594	263	-947
21071	-1757	690	-1073	594	263	-947
21076	-1797	657	-1084	594	263	-947
21081	-1707	737	-956	594	263	-947
21086	-1348	503	-917	2263	647	-272
21091	-1391	1578	2	2263	647	-272
21096	-1472	1071	-1297	2263	647	-272
21101	-1590	914	-1210	2263	647	-272
21106	-1693	726	-1038	2263	647	-272
21111	-1728	599	-1008	2263	647	-272
21116	-1772	561	-1027	1560	1036	-520
21121	-1737	489	-1031	1560	1036	-520
21126	-1705	409	-1007	1560	1036	-520
21131	-1707	478	-1154	1560	1036	-520
21136	-1769	393	-1053	1560	1036	-520
21141	-1743	448	-1063	1560	1036	-520
21146	-1684	537	-1091	1755	1558	-235
21151	-1570	474	-1177	1755	1558	-235
21156	-1463	339	-1221	1755	1558	-235
21161	-1437	403	-1425	1755	1558	-235
21166	-1458	324	-1418	1755	1558	-235
21171	-1560	407	-1412	1755	1558	-235
21176	-1336	-852	-489	877	300	-1007
21181	-1944	224	-1222	877	300	-1007
21186	-1614	161	-2139	877	300	-1007
21191	-2034	285	-1230	877	300	-1007
21196	-1712	716	139	877	300	-1007
21201	-2125	763	-1578	877	300	-1007
21206	-1781	219	-1294	420	-88	-487
21211	-1584	69	-1041	420	-88	-487
21216	-1592	59	-1623	420	-88	-487
21221	-1617	-100	-1620	420	-88	-487
21226	-1593	-196	-1553	420	-88	-487
21231	-1608	-223	-1510	420	-88	-487
21236	-1579	-249	-1318	420	-88	-487
21241	-1525	-277	-1244	155	219	251
21246	-1457	-363	-1185	155	219	251
21251	-1499	40	-3813	155	219	251
21256	-1438	-577	-1379	155	219	251
21261	-1420	-481	-1338	155	219	251
21266	-1366	-531	-1434	155	219	251
21271	-1562	-326	-1368	414	132	223
21276	-1488	-290	-1585	414	132	223
21281	-1557	-286	-1588	414	132	223
21286	-1555	-379	-1538	414	132	223
21291	-2036	-398	-1257	414	132	223
21296	-1565	-170	-1421	414	132	223
21301	-1755	122	-1322	159	-178	61
21306	-1893	311	-1267	159	-178	61
21311	-1588	194	-1448	159	-178	61
21316	-1656	43	-1591	159	-178	61
21321	-1640	-88	-1644	159	-178	61
21326	-1642	-129	-1577	159	-178	61
21331	-1697	-150	-1601	-295	-295	-230
21336	-1690	-189	-1633	-295	-295	-230
21341	-1665	-262	-1629	-295	-295	-230
21346	-1664	-137	-1601	-295	-295	-230
21351	-1715	-156	-1470	-295	-295	-230
21356	-1615	-218	-1312	-295	-295	-230
21361	-1566	-202	-1284	35	-428	25
21366	-1556	-203	-1336	35	-428	25
21371	-1549	-188	-1407	35	-428	25
21376	-1561	-208	-1421	35	-428	25
21381	-1611	-143	-1447	35	-428	25
21386	-1582	-279	-1418	35	-428	25
21391	-1533	-367	-1519	35	-428	25
21396	-1516	-447	-1528	-680	-1030	-99
21401	-1506	-538	-1476	-680	-1030	-99
21406	-1611	-434	-1350	-680	-1030	-99
21411	-1717	-64	-1267	-680	-1030	-99
21416	-1794	231	-1264	-680	-1030	-99
21421	-1857	302	-1334	-680	-1030	-99
21426	-1763	180	-1371	569	-444	247
21431	-1668	-3	-1277	569	-444	247
21436	-1629	-103	-1145	569	-444	247
21441	-1660	-237	-1161	569	-444	247
21446	-1696	-194	-1173	569	-444	247
21451	-1681	-175	-1162	569	-444	247
21456	-1733	-175	-1087	-381	-265	-153
21461	-1851	-140	-1167	-381	-265	-153
21466	-1888	-41	-1133	-381	-265	-153
21471	-1843	78	-1121	-381	-265	-153
21476	-1768	-9	-1087	-381	-265	-153
21481	-1728	-107	-1017	-381	-265	-153
21486	-1707	-102	-1003	73	-297	-89
21491	-1712	-125	-1065	73	-297	-89
21496	-1695	-122	-1161	73	-297	-89
21501	-1703	-158	-1118	73	-297	-89
21506	-1739	-170	-1124	73	-297	-89
21511	-1707	-214	-1096	73	-297	-89
21516	-1777	-173	-1153	-225	-668	-30
21521	-1839	-193	-1242	-225	-668	-30
21526	-1861	-13	-1189	-225	-668	-30
21531	-1921	-16	-1180	-225	-668	-30
21536	-2001	-20	-1270	-225	-668	-30
21541	-1923	-165	-1218	-225	-668	-30
21546	-1804	-225	-1035	-225	-668	-30
21551	-1776	-211	-849	-341	86	115
21556	-1782	-216	-831	-341	86	115
21561	-1759	-168	-787	-341	86	115
21566	-1799	-124	-976	-341	86	115
21571	-1763	-115	-1064	-341	86	115
21576	-1718	-158	-1071	-341	86	115
21581	-1804	-87	-1034	-189	-436	-42
21586	-1840	-60	-1135	-189	-436	-42
21591	-1855	-26	-1184	-189	-436	-42
21596	-1892	48	-1100	-189	-436	-42
21601	-1875	-156	-1048	-189	-436	-42
21606	-1840	-285	-1003	-189	-436	-42
21611	-1885	-242	-1030	-472	-194	302
21616	-1972	-102	-1043	-472	-194	302
21621	-1947	-72	-1003	-472	-194	302
21626	-1946	-97	-1001	-472	-194	302
21631	-1901	-206	-1008	-472	-194	302
21636	-1878	-194	-878	-472	-194	302
21641	-1890	-102	-839	-511	-864	331
21646	-1841	25	-839	-511	-864	331
21651	-1760	-15	-1058	-511	-864	331
21656	-1887	73	-1090	-511	-864	331
21661	-1955	58	-1102	-511	-864	331
21666	-1951	57	-989	-511	-864	331
21671	-2032	75	-950	-1054	-1118	586
21676	-2067	34	-912	-1054	-1118	586
21681	-2025	87	-958	-1054	-1118	586
21686	-2033	111	-1105	-1054	-1118	586
21691	-1989	151	-903	-1054	-1118	586
21696	-2003	112	-780	-1054	-1118	586
21701	-2050	99	-597	-1054	-1118	586
21706	-2039	156	-610	-1173	-1361	789
21711	-2044	215	-628	-1173	-1361	789
21716	-1985	195	-663	-1173	-1361	789
21721	-1994	189	-650	-1173	-1361	789
21726	-1976	180	-664	-1173	-1361	789
21731	-1969	121	-614	-1173	-1361	789
21736	-1874	-7	-647	-826	-1308	1043
21741	-1831	-123	-711	-826	-1308	1043
21746	-1846	-26	-673	-826	-1308	1043
21751	-1892	93	-546	-826	-1308	1043
21756	-1894	221	-497	-826	-1308	1043
21761	-1935	399	-518	-826	-1308	1043
21766	-1966	558	-496	-288	-204	399
21771	-2006	448	-397	-288	-204	399
21776	-1960	389	-178	-288	-204	399
21781	-1994	380	-99	-288	-204	399
21786	-1958	418	-134	-288	-204	399
21791	-1952	388	-144	-288	-204	399
21796	-1967	424	-169	182	293	394
21801	-1959	505	-170	182	293	394
21806	-1858	540	-187	182	293	394
21811	-1922	504	-240	182	293	394
21816	-1484	407	-274	182	293	394
21821	-2186	240	-849	182	293	394
21826	61	138	-585	-4	-726	850
21831	-1912	273	-829	-4	-726	850
21836	-1988	265	-674	-4	-726	850
21841	-1606	268	-568	-4	-726	850
21846	-2085	485	-438	-4	-726	850
21851	-1973	478	-491	-4	-726	850
21856	-2020	604	-213	-4	-726	850
21861	-1962	654	-398	152	521	-131
21866	-2087	740	-261	152	521	-131
21871	-2051	1185	378	152	521	-131
21876	-2269	1156	245	152	521	-131
21881	-2074	930	58	152	521	-131
21886	-1960	702	-171	152	521	-131
21891	-1898	585	-276	197	115	390
21896	-1892	478	-377	197	115	390
21901	-1904	451	-384	197	115	390
21906	-1938	439	-359	197	115	390
21911	-1927	464	-324	197	115	390
21916	-1950	557	-383	197	115	390
21921	-1967	639	-458	551	199	460
21926	-1971	687	-433	551	199	460
21931	-1964	717	-324	551	199	460
21936	-1959	778	-229	551	199	460
21941	-1990	757	-227	551	199	460
21946	-1979	715	-243	551	199	460
21951	-1937	661	-287	217	-154	677
21956	-1909	587	-276	217	-154	677
21961	-1871	516	-250	217	-154	677
21966	-1863	493	-290	217	-154	677
21971	-1943	671	-487	217	-154	677
21976	-1973	775	-596	217	-154	677
21981	-1970	746	-592	-304	-452	399
21986	-1940	732	-465	-304	-452	399
21991	-1904	833	-329	-304	-452	399
21996	-1923	855	-252	-304	-452	399
22001	-1898	898	-191	-304	-452	399
22006	-2243	818	-152	-304	-452	399
22011	-1799	853	-242	-304	-452	399
22016	-2037	792	-268	-523	-760	663
22021	-1886	779	-301	-523	-760	663
22026	-1902	754	-261	-523	-760	663
22031	-1887	735	-253	-523	-760	663
22036	-1881	762	-238	-523	-760	663
22041	-1883	852	-224	-523	-760	663
22046	-1908	882	-207	-507	-472	411
22051	-1927	956	-163	-507	-472	411
22056	-1950	994	-104	-507	-472	411
22061	-1920	1004	-16	-507	-472	411
22066	-1903	993	14	-507	-472	411
22071	-1886	929	-61	-507	-472	411
22076	-1832	841	-124	-638	-570	433
22081	-1819	856	-152	-638	-570	433
22086	-1817	895	-88	-638	-570	433
22091	-1861	1010	-27	-638	-570	433
22096	-1867	1066	25	-638	-570	433
22101	-1848	1059	47	-638	-570	433
22106	-1786	1051	93	-851	-509	444
22111	-1775	1019	125	-851	-509	444
22116	-1760	1020	111	-851	-509	444
22121	-1733	1030	77	-851	-509	444
22126	-1734	1061	96	-851	-509	444
22131	-1747	1073	129	-851	-509	444
22136	-1742	1119	168	-614	-187	361
22141	-1728	1112	119	-614	-187	361
22146	-1720	1065	104	-614	-187	361
22151	-1756	1110	124	-614	-187	361
22156	-1718	1094	185	-614	-187	361
22161	-1731	1096	95	-614	-187	361
22166	-1622	1032	149	-614	-187	361
22171	-1657	1077	57	-379	95	125
22176	-1704	1141	276	-379	95	125
22181	-1617	1031	161	-379	95	125
22186	-1692	1134	211	-379	95	125
22191	-1700	1063	232	-379	95	125
22196	-1701	1149	205	-379	95	125
22201	-1651	1486	35	-112	-4	377
22206	-1681	1290	-62	-112	-4	377
22211	-1707	1168	145	-112	-4	377
22216	-1685	1126	259	-112	-4	377
22221	-1713	1125	191	-112	-4	377
22226	-1639	1041	286	-112	-4	377
22231	-1661	1054	327	-272	119	620
22236	-1666	1117	194	-272	119	620
22241	-1661	1054	218	-272	119	620
22246	-1672	1133	218	-272	119	620
22251	-1781	1321	96	-272	119	620
22256	-1723	1148	202	-272	119	620
22261	-1891	1160	389	-389	-238	512
22266	-1870	836	514	-389	-238	512
22271	-1330	995	175	-389	-238	512
22276	-1597	1200	224	-389	-238	512
22281	-1691	1264	191	-389	-238	512
22286	-1775	1275	147	-389	-238	512
22291	-1711	1245	252	-1270	-602	944
22296	-1666	1204	381	-1270	-602	944
22301	-1663	1170	428	-1270	-602	944
22306	-1633	1172	486	-1270	-602	944
22311	-1802	868	864	-1270	-602	944
22316	-1730	1081	308	-1270	-602	944
22321	-1802	1145	348	-1270	-602	944
22326	-1585	1170	196	-640	-679	163
22331	-1883	2650	3146	-640	-679	163
22336	-1564	1227	428	-640	-679	163
22341	-1455	1181	441	-640	-679	163
22346	-1438	1180	455	-640	-679	163
22351	-1420	1105	642	-640	-679	163
22356	-1474	1318	652	-843	-85	110
22361	-1487	1396	636	-843	-85	110
22366	-1583	1449	478	-843	-85	110
22371	-1266	1059	518	-843	-85	110
22376	-2235	2278	1534	-843	-85	110
22381	-1469	1197	474	-843	-85	110
22386	-1568	1217	551	-626	-134	61
22391	-1458	1251	619	-626	-134	61
22396	-1471	1229	681	-626	-134	61
22401	-1487	1239	602	-626	-134	61
22406	-1479	1275	570	-626	-134	61
22411	-1465	1238	622	-626	-134	61
22416	-1427	967	643	-340	206	96
22421	-1360	1137	620	-340	206	96
22426	-1429	1132	713	-340	206	96
22431	-1426	1183	818	-340	206	96
22436	-1464	1258	779	-340	206	96
22441	-1486	1342	713	-340	206	96
22446	-1492	1337	659	-625	-127	368
22451	-1517	1284	654	-625	-127	368
22456	-1512	1259	638	-625	-127	368
22461	-1524	1190	613	-625	-127	368
22466	-1501	1154	582	-625	-127	368
22471	-1492	1069	534	-625	-127	368
22476	-1475	1037	581	-625	-127	368
22481	-1405	1060	645	-827	-129	418
22486	-1395	1092	695	-827	-129	418
22491	-1445	1143	719	-827	-129	418
22496	-1440	1214	806	-827	-129	418
22501	-1411	1237	821	-827	-129	418
22506	-1406	1158	854	-827	-129	418
22511	-1374	1213	848	-1169	-145	290
22516	-1420	1249	833	-1169	-145	290
22521	-1431	1307	826	-1169	-145	290
22526	-1463	1349	797	-1169	-145	290
22531	-1515	1224	793	-1169	-145	290
22536	-1578	973	800	-1169	-145	290
22541	-1370	1262	1097	-989	521	462
22546	-1382	1209	1117	-989	521	462
22551	-1373	1178	1077	-989	521	462
22556	-1366	1127	949	-989	521	462
22561	-1323	1038	1119	-989	521	462
22566	-1478	1087	901	-989	521	462
22571	-1354	922	806	-1220	-30	393
22576	-1428	1055	786	-1220	-30	393
22581	-1412	1192	902	-1220	-30	393
22586	-1405	1245	1028	-1220	-30	393
22591	-1393	1228	989	-1220	-30	393
22596	-1358	1222	911	-1220	-30	393
22601	-1469	1173	893	-844	-309	466
22606	-1357	1097	916	-844	-309	466
22611	-1342	992	972	-844	-309	466
22616	-1311	937	1001	-844	-309	466
22621	-1302	989	1025	-844	-309	466
22626	-1313	988	944	-844	-309	466
22631	-1288	1113	959	-844	-309	466
22636	-1332	1228	982	-1028	103	462
22641	-1373	1261	1093	-1028	103	462
22646	-1334	1180	1132	-1028	103	462
22651	-1247	1110	1137	-1028	103	462
22656	-1184	949	1230	-1028	103	462
22661	-1293	934	1194	-1028	103	462
22666	-1259	1050	1071	-130	-125	22
22671	-1262	995	988	-130	-125	22
22676	-1237	1018	1058	-130	-125	22
22681	-1218	1158	1156	-130	-125	22
22686	-1257	1258	1176	-130	-125	22
22691	-1284	1294	1208	-130	-125	22
22696	-1286	1229	1130	-492	-402	47
22701	-1250	1134	1160	-492	-402	47
22706	-1220	1074	1135	-492	-402	47
22711	-1191	1066	1112	-492	-402	47
22716	-1191	1034	1146	-492	-402	47
22721	-1200	1052	1175	-492	-402	47
22726	-1206	1098	1180	-427	-288	-77
22731	-1183	1077	1213	-427	-288	-77
22736	-1174	1081	1243	-427	-288	-77
22741	-1223	1150	1243	-427	-288	-77
22746	-1210	1013	1117	-427	-288	-77
22751	-1233	1000	1201	-427	-288	-77
22756	-1217	1105	1176	-334	-216	-105
22761	-1254	1182	1178	-334	-216	-105
22766	-1196	1037	1223	-334	-216	-105
22771	-1222	912	1191	-334	-216	-105
22776	-1131	904	1172	-334	-216	-105
22781	-1156	860	1286	-334	-216	-105
22786	-1136	865	1281	-334	-216	-105
22791	-1158	850	1241	36	-132	-216
22796	-1138	905	1238	36	-132	-216
22801	-1131	905	1255	36	-132	-216
22806	-1134	916	1297	36	-132	-216
22811	-1158	973	1304	36	-132	-216
22816	-1193	1043	1275	36	-132	-216
22821	-1219	1012	1288	-123	-42	2
22826	-1181	972	1343	-123	-42	2
22831	-1188	932	1435	-123	-42	2
22836	-1166	828	1422	-123	-42	2
22841	-1187	918	1380	-123	-42	2
22846	-1178	943	1355	-123	-42	2
22851	-1131	907	1308	-113	-141	-57
22856	-1150	843	1303	-113	-141	-57
22861	-1103	885	1330	-113	-141	-57
22866	-1084	845	1303	-113	-141	-57
22871	-1132	925	1293	-113	-141	-57
22876	-1167	980	1330	-113	-141	-57
22881	-1171	1006	1316	-115	-75	-1
22886	-1170	992	1328	-115	-75	-1
22891	-1168	930	1330	-115	-75	-1
22896	-1169	892	1322	-115	-75	-1
22901	-1172	872	1321	-115	-75	-1
22906	-1177	885	1294	-115	-75	-1
22911	-1161	892	1294	93	-27	-71
22916	-1137	872	1310	93	-27	-71
22921	-1150	868	1335	93	-27	-71
22926	-1084	809	1342	93	-27	-71
22931	-1068	789	1314	93	-27	-71
22936	-1086	822	1340	93	-27	-71
22941	-1121	847	1378	93	-27	-71
22946	-1135	850	1398	-60	-17	-11
22951	-1146	892	1335	-60	-17	-11
22956	-1184	928	1319	-60	-17	-11
22961	-1191	929	1320	-60	-17	-11
22966	-1193	941	1359	-60	-17	-11
22971	-1177	926	1304	-60	-17	-11
22976	-1176	903	1311	70	86	-95
22981	-1154	925	1322	70	86	-95
22986	-1151	927	1338	70	86	-95
22991	-1118	893	1360	70	86	-95
22996	-1101	886	1352	70	86	-95
23001	-1095	854	1333	70	86	-95
23006	-1112	869	1332	-43	42	-153
23011	-1138	894	1328	-43	42	-153
23016	-1161	899	1326	-43	42	-153
23021	-1177	894	1320	-43	42	-153
23026	-1179	902	1338	-43	42	-153
23031	-1190	921	1325	-43	42	-153
23036	-1201	921	1317	-48	-12	91
23041	-1176	904	1318	-48	-12	91
23046	-1156	888	1343	-48	-12	91
23051	-1152	890	1308	-48	-12	91
23056	-1144	895	1327	-48	-12	91
23061	-1148	862	1322	-48	-12	91
23066	-1137	864	1308	-28	-18	-26
23071	-1175	904	1337	-28	-18	-26
23076	-1181	928	1330	-28	-18	-26
23081	-1189	943	1299	-28	-18	-26
23086	-1178	920	1281	-28	-18	-26
23091	-1163	895	1290	-28	-18	-26
23096	-1165	925	1323	-28	-18	-26
23101	-1174	894	1354	37	-49	65
23106	-1156	909	1324	37	-49	65
23111	-1170	906	1304	37	-49	65
23116	-1179	907	1313	37	-49	65
23121	-1208	908	1288	37	-49	65
23126	-1193	924	1313	37	-49	65
23131	-1192	929	1350	-38	-14	6
23136	-1193	941	1325	-38	-14	6
23141	-1189	922	1340	-38	-14	6
23146	-1183	901	1343	-38	-14	6
23151	-1152	877	1353	-38	-14	6
23156	-1143	858	1362	-38	-14	6
23161	-1121	865	1336	-12	-11	-10
23166	-1137	882	1329	-12	-11	-10
23171	-1149	907	1306	-12	-11	-10
23176	-1172	949	1295	-12	-11	-10
23181	-1176	938	1315	-12	-11	-10
23186	-1163	922	1309	-12	-11	-10
23191	-1145	912	1309	191	-109	15
23196	-1131	890	1331	191	-109	15
23201	-1122	880	1338	191	-109	15
23206	-1127	869	1355	191	-109	15
23211	-1122	881	1307	191	-109	15
23216	-1162	896	1304	191	-109	15
23221	-1215	931	1426	37	-15	12
23226	-1227	968	1290	37	-15	12
23231	-1190	941	1285	37	-15	12
23236	-1177	923	1313	37	-15	12
23241	-1169	914	1328	37	-15	12
23246	-1150	895	1332	37	-15	12
23251	-1129	867	1354	37	-15	12
23256	-1110	834	1318	13	25	-104
23261	-1163	903	1312	13	25	-104
23266	-1180	926	1310	13	25	-104
23271	-1178	906	1286	13	25	-104
23276	-1177	911	1287	13	25	-104
23281	-1189	918	1300	13	25	-104
23286	-1203	925	1326	-12	165	-106
23291	-1192	936	1333	-12	165	-106
23296	-1192	927	1320	-12	165	-106
23301	-1176	897	1304	-12	165	-106
23306	-1157	889	1301	-12	165	-106
23311	-1149	894	1311	-12	165	-106
23316	-1127	883	1307	47	90	-11
23321	-1123	872	1314	47	90	-11
23326	-1140	875	1303	47	90	-11
23331	-1149	908	1296	47	90	-11
23336	-1177	940	1285	47	90	-11
23341	-1203	937	1290	47	90	-11
23346	-1200	929	1295	-5	40	-137
23351	-1211	950	1269	-5	40	-137
23356	-1194	936	1312	-5	40	-137
23361	-1170	918	1333	-5	40	-137
23366	-1150	877	1330	-5	40	-137
23371	-1157	893	1279	-5	40	-137
23376	-1166	900	1291	-44	-11	-77
23381	-1145	880	1322	-44	-11	-77
23386	-1167	903	1292	-44	-11	-77
23391	-1179	924	1284	-44	-11	-77
23396	-1178	926	1291	-44	-11	-77
23401	-1184	933	1288	-44	-11	-77
23406	-1177	917	1272	-44	-11	-77
23411	-1163	902	1288	-2	-7	-41
23416	-1163	910	1294	-2	-7	-41
23421	-1168	917	1306	-2	-7	-41
23426	-1175	921	1292	-2	-7	-41
23431	-1180	914	1307	-2	-7	-41
23436	-1184	918	1297	-2	-7	-41
23441	-1204	940	1280	-6	-39	72
23446	-1223	950	1284	-6	-39	72
23451	-1239	950	1292	-6	-39	72
23456	-1222	938	1297	-6	-39	72
23461	-1194	920	1298	-6	-39	72
23466	-1184	933	1300	-6	-39	72
23471	-1182	926	1336	-46	0	39
23476	-1159	922	1319	-46	0	39
23481	-1149	906	1333	-46	0	39
23486	-1154	887	1297	-46	0	39
23491	-1162	888	1287	-46	0	39
23496	-1173	900	1302	-46	0	39
23501	-1191	926	1282	-13	-31	-20
23506	-1185	929	1275	-13	-31	-20
23511	-1180	901	1294	-13	-31	-20
23516	-1156	900	1295	-13	-31	-20
23521	-1153	914	1292	-13	-31	-20
23526	-1153	937	1294	-13	-31	-20
23531	-1161	947	1298	-15	-111	36
23536	-1171	935	1302	-15	-111	36
23541	-1161	955	1303	-15	-111	36
23546	-1168	948	1295	-15	-111	36
23551	-1151	941	1301	-15	-111	36
23556	-1149	922	1290	-15	-111	36
23561	-1152	909	1304	-15	-111	36
23566	-1184	950	1279	-75	-61	-48
23571	-1052	961	1433	-75	-61	-48
23576	-1180	926	1302	-75	-61	-48
23581	-1170	965	1290	-75	-61	-48
23586	-1163	958	1314	-75	-61	-48
23591	-1150	939	1320	-75	-61	-48
23596	-1150	934	1344	-105	-65	31
23601	-1131	896	1346	-105	-65	31
23606	-1086	855	1307	-105	-65	31
23611	-1160	923	1321	-105	-65	31
23616	-1144	869	1323	-105	-65	31
23621	-1224	874	1320	-105	-65	31
23626	-1176	930	1330	48	30	-109
23631	-1177	932	1326	48	30	-109
23636	-1137	918	1302	48	30	-109
23641	-1184	966	1297	48	30	-109
23646	-1174	953	1287	48	30	-109
23651	-1144	944	1292	48	30	-109
23656	-1135	931	1300	-41	25	56
23661	-1130	920	1314	-41	25	56
23666	-1155	950	1319	-41	25	56
23671	-1161	940	1331	-41	25	56
23676	-1165	917	1286	-41	25	56
23681	-1167	934	1269	-41	25	56
23686	-1188	935	1278	-41	80	112
23691	-1159	941	1291	-41	80	112
23696	-1152	932	1303	-41	80	112
23701	-1127	929	1304	-41	80	112
23706	-1132	913	1297	-41	80	112
23711	-1126	926	1307	-41	80	112
23716	-1147	919	1303	-41	80	112
23721	-1166	946	1325	52	116	-24
23726	-1169	911	1327	52	116	-24
23731	-1181	942	1298	52	116	-24
23736	-1214	982	1310	52	116	-24
23741	-1195	970	1279	52	116	-24
23746	-1169	953	1292	52	116	-24
23751	-1154	933	1308	-61	-51	24
23756	-1136	937	1283	-61	-51	24
23761	-1159	939	1306	-61	-51	24
23766	-1180	970	1322	-61	-51	24
23771	-1191	960	1325	-61	-51	24
23776	-1179	944	1309	-61	-51	24
23781	-1174	943	1310	-97	23	-55
23786	-1179	929	1323	-97	23	-55
23791	-1169	938	1312	-97	23	-55
23796	-1168	918	1306	-97	23	-55
23801	-1164	912	1309	-97	23	-55
23806	-1184	956	1271	-97	23	-55
23811	-1195	956	1294	-60	34	-52
23816	-1174	953	1269	-60	34	-52
23821	-1172	956	1291	-60	34	-52
23826	-1172	953	1312	-60	34	-52
23831	-1167	958	1295	-60	34	-52
23836	-1163	936	1307	-60	34	-52
23841	-1156	915	1298	-83	29	66
23846	-1150	918	1307	-83	29	66
23851	-1147	906	1310	-83	29	66
23856	-1168	917	1299	-83	29	66
23861	-1172	909	1294	-83	29	66
23866	-1172	922	1301	-83	29	66
23871	-1170	905	1296	-83	29	66
23876	-1167	904	1283	-56	95	-67
23881	-1163	912	1293	-56	95	-67
23886	-1182	935	1323	-56	95	-67
23891	-1174	926	1312	-56	95	-67
23896	-1164	930	1322	-56	95	-67
23901	-1155	927	1298	-56	95	-67
23906	-1142	934	1305	-41	-41	-54
23911	-1162	937	1291	-41	-41	-54
23916	-1185	934	1310	-41	-41	-54
23921	-1183	928	1307	-41	-41	-54
23926	-1188	923	1294	-41	-41	-54
23931	-1192	930	1318	-41	-41	-54
23936	-1169	920	1326	-112	-4	34
23941	-1149	904	1312	-112	-4	34
23946	-1141	903	1308	-112	-4	34
23951	-1139	909	1324	-112	-4	34
23956	-1132	911	1313	-112	-4	34
23961	-1146	901	1310	-112	-4	34
23966	-1149	924	1303	18	-22	-67
23971	-1158	942	1287	18	-22	-67
23976	-1167	934	1290	18	-22	-67
23981	-1165	942	1293	18	-22	-67
23986	-1178	956	1280	18	-22	-67
23991	-1179	954	1305	18	-22	-67
23996	-1191	944	1290	-85	52	-89
24001	-1181	945	1308	-85	52	-89
24006	-1199	947	1277	-85	52	-89
24011	-1177	942	1284	-85	52	-89
24016	-1166	913	1301	-85	52	-89
24021	-1155	909	1301	-85	52	-89
24026	-1158	920	1310	-85	52	-89
24031	-1150	931	1300	8	-31	5
24036	-1136	913	1301	8	-31	5
24041	-1136	903	1302	8	-31	5
24046	-1150	903	1310	8	-31	5
24051	-1170	923	1290	8	-31	5
24056	-1176	949	1279	8	-31	5
24061	-1170	933	1278	-67	-10	-71
24066	-1192	977	1284	-67	-10	-71
24071	-1204	988	1308	-67	-10	-71
24076	-1197	957	1293	-67	-10	-71
24081	-1177	959	1307	-67	-10	-71
24086	-1174	952	1330	-67	-10	-71
24091	-1176	936	1318	-43	-12	81
24096	-1167	921	1299	-43	-12	81
24101	-1173	909	1292	-43	-12	81
24106	-1164	914	1273	-43	-12	81
24111	-1165	909	1277	-43	-12	81
24116	-1163	927	1284	-43	-12	81
24121	-1171	940	1320	-37	-13	5
24126	-1152	917	1290	-37	-13	5
24131	-1151	925	1290	-37	-13	5
24136	-1172	945	1320	-37	-13	5
24141	-1165	937	1292	-37	-13	5
24146	-1178	935	1274	-37	-13	5
24151	-1179	942	1277	-27	-20	-70
24156	-1175	949	1264	-27	-20	-70
24161	-1181	951	1285	-27	-20	-70
24166	-1192	948	1310	-27	-20	-70
24171	-1166	919	1297	-27	-20	-70
24176	-1156	907	1308	-27	-20	-70
24181	-1156	901	1315	-27	-20	-70
24186	-1150	919	1299	-96	12	27
24191	-1162	938	1279	-96	12	27
24196	-1171	940	1280	-96	12	27
24201	-1170	923	1296	-96	12	27
24206	-1180	926	1295	-96	12	27
24211	-1184	943	1287	-96	12	27
24216	-1189	960	1300	-30	70	2
24221	-1193	969	1276	-30	70	2
24226	-1197	973	1297	-30	70	2
24231	-1204	994	1294	-30	70	2
24236	-1210	954	1298	-30	70	2
24241	-1178	942	1289	-30	70	2
24246	-1181	922	1343	-24	9	-76
24251	-1167	907	1312	-24	9	-76
24256	-1153	894	1305	-24	9	-76
24261	-1143	881	1296	-24	9	-76
24266	-1146	889	1296	-24	9	-76
24271	-1155	907	1280	-24	9	-76
24276	-1154	923	1264	-56	-47	37
24281	-1160	946	1288	-56	-47	37
24286	-1170	938	1294	-56	-47	37
24291	-1170	954	1264	-56	-47	37
24296	-1197	970	1273	-56	-47	37
24301	-1206	967	1281	-56	-47	37
24306	-1186	938	1275	18	-32	90
24311	-1180	903	1300	18	-32	90
24316	-1173	904	1272	18	-32	90
24321	-1160	899	1277	18	-32	90
24326	-1175	922	1261	18	-32	90
24331	-1159	949	1286	18	-32	90
24336	-1165	955	1287	18	-32	90
24341	-1164	950	1302	7	-5	-8
24346	-1161	939	1288	7	-5	-8
24351	-1185	955	1272	7	-5	-8
24356	-1212	985	1301	7	-5	-8
24361	-1209	972	1295	7	-5	-8
24366	-1193	961	1287	7	-5	-8
24371	-1171	924	1301	1	-61	74
24376	-1149	913	1304	1	-61	74
24381	-1139	893	1317	1	-61	74
24386	-1123	882	1290	1	-61	74
24391	-1144	891	1297	1	-61	74
24396	-1153	890	1284	1	-61	74
24401	-1158	914	1277	-57	-28	-19
24406	-1172	933	1292	-57	-28	-19
24411	-1174	939	1289	-57	-28	-19
24416	-1184	938	1302	-57	-28	-19
24421	-1186	973	1310	-57	-28	-19
24426	-1197	981	1310	-57	-28	-19
24431	-1183	962	1307	5	70	-64
24436	-1166	963	1293	5	70	-64
24441	-1198	985	1307	5	70	-64
24446	-1208	981	1309	5	70	-64
24451	-1197	966	1299	5	70	-64
24456	-1179	919	1300	5	70	-64
24461	-1188	944	1283	-3	-10	19
24466	-1167	938	1301	-3	-10	19
24471	-1141	891	1289	-3	-10	19
24476	-1136	872	1311	-3	-10	19
24481	-1139	886	1307	-3	-10	19
24486	-1159	910	1280	-3	-10	19
24491	-1179	935	1293	-3	-10	19
24496	-1191	924	1293	86	60	-128
24501	-1198	937	1257	86	60	-128
24506	-1195	949	1278	86	60	-128
24511	-1214	986	1284	86	60	-128
24516	-1216	971	1310	86	60	-128
24521	-1225	963	1283	86	60	-128
24526	-1241	973	1261	59	167	-231
24531	-1248	977	1262	59	167	-231
24536	-1248	972	1280	59	167	-231
24541	-1226	950	1284	59	167	-231
24546	-1212	928	1278	59	167	-231
24551	-1174	921	1296	59	167	-231
24556	-1147	904	1296	40	63	-77
24561	-1153	932	1274	40	63	-77
24566	-1172	955	1242	40	63	-77
24571	-1191	962	1228	40	63	-77
24576	-1206	960	1244	40	63	-77
24581	-1180	915	1260	40	63	-77
24586	-1173	916	1228	-6	3	-42
24591	-1187	884	1253	-6	3	-42
24596	-1171	873	1266	-6	3	-42
24601	-1149	849	1253	-6	3	-42
24606	-1139	828	1287	-6	3	-42
24611	-1150	866	1243	-6	3	-42
24616	-1173	894	1249	-53	36	-127
24621	-1208	888	1271	-53	36	-127
24626	-1219	975	1259	-53	36	-127
24631	-1246	977	1262	-53	36	-127
24636	-1255	999	1254	-53	36	-127
24641	-1264	1002	1267	-53	36	-127
24646	-1269	995	1270	-53	36	-127
24651	-1261	967	1280	2	50	-38
24656	-1253	949	1277	2	50	-38
24661	-1246	934	1275	2	50	-38
24666	-1223	927	1268	2	50	-38
24671	-1209	913	1272	2	50	-38
24676	-1197	885	1279	2	50	-38
24681	-1194	874	1273	-76	-42	-35
24686	-1194	879	1286	-76	-42	-35
24691	-1220	927	1255	-76	-42	-35
24696	-1231	938	1278	-76	-42	-35
24701	-1228	923	1276	-76	-42	-35
24706	-1219	910	1240	-76	-42	-35
24711	-1210	904	1242	9	60	-32
24716	-1197	894	1245	9	60	-32
24721	-1188	877	1256	9	60	-32
24726	-1177	864	1242	9	60	-32
24731	-1190	882	1268	9	60	-32
24736	-1206	926	1222	9	60	-32
24741	-1237	970	1251	-79	5	-98
24746	-1245	986	1257	-79	5	-98
24751	-1247	961	1265	-79	5	-98
24756	-1239	927	1263	-79	5	-98
24761	-1224	928	1257	-79	5	-98
24766	-1226	963	1239	-79	5	-98
24771	-1234	954	1252	8	42	28
24776	-1224	931	1278	8	42	28
24781	-1221	897	1293	8	42	28
24786	-1213	890	1262	8	42	28
24791	-1209	894	1257	8	42	28
24796	-1219	884	1262	8	42	28
24801	-1211	889	1249	8	42	28
24806	-1222	899	1250	-46	35	-123
24811	-1223	913	1247	-46	35	-123
24816	-1216	933	1259	-46	35	-123
24821	-1241	988	1260	-46	35	-123
24826	-1236	991	1269	-46	35	-123
24831	-1238	967	1262	-46	35	-123
24836	-1233	948	1266	-64	49	41
24841	-1231	960	1248	-64	49	41
24846	-1237	945	1254	-64	49	41
24851	-1228	934	1271	-64	49	41
24856	-1217	902	1243	-64	49	41
24861	-1219	889	1226	-64	49	41
24866	-1219	899	1252	48	39	-190
24871	-1240	900	1239	48	39	-190
24876	-1249	923	1269	48	39	-190
24881	-1270	937	1240	48	39	-190
24886	-1253	965	1244	48	39	-190
24891	-1263	950	1266	48	39	-190
24896	-1234	934	1251	-31	-21	65
24901	-1208	909	1251	-31	-21	65
24906	-1201	904	1252	-31	-21	65
24911	-1193	909	1263	-31	-21	65
24916	-1195	908	1263	-31	-21	65
24921	-1197	902	1248	-31	-21	65
24926	-1220	926	1241	-37	29	87
24931	-1222	921	1235	-37	29	87
24936	-1239	923	1242	-37	29	87
24941	-1230	925	1229	-37	29	87
24946	-1241	922	1241	-37	29	87
24951	-1244	927	1235	-37	29	87
24956	-1227	930	1238	-37	29	87
24961	-1235	927	1246	30	22	56
24966	-1232	942	1243	30	22	56
24971	-1236	940	1243	30	22	56
24976	-1223	922	1226	30	22	56
24981	-1222	921	1237	30	22	56
24986	-1225	935	1233	30	22	56
24991	-1247	951	1240	5	-20	-19
24996	-1258	957	1245	5	-20	-19
25001	-1255	940	1247	5	-20	-19
25006	-1249	935	1257	5	-20	-19
25011	-1243	937	1232	5	-20	-19
25016	-1246	938	1240	5	-20	-19
25021	-1231	948	1241	-28	16	-41
25026	-1226	962	1217	-28	16	-41
25031	-1252	932	1211	-28	16	-41
25036	-1251	934	1248	-28	16	-41
25041	-1232	898	1208	-28	16	-41
25046	-1225	898	1221	-28	16	-41
25051	-1235	884	1227	8	69	-16
25056	-1235	897	1221	8	69	-16
25061	-1248	917	1213	8	69	-16
25066	-1235	907	1215	8	69	-16
25071	-1219	893	1204	8	69	-16
25076	-1224	921	1198	8	69	-16
25081	-1253	947	1212	-13	-22	49
25086	-1285	1013	1235	-13	-22	49
25091	-1287	1023	1238	-13	-22	49
25096	-1270	979	1241	-13	-22	49
25101	-1255	953	1226	-13	-22	49
25106	-1244	940	1240	-13	-22	49
25111	-1223	919	1240	-13	-22	49
25116	-1230	916	1243	-25	28	-46
25121	-1241	913	1244	-25	28	-46
25126	-1253	918	1227	-25	28	-46
25131	-1247	922	1229	-25	28	-46
25136	-1260	921	1216	-25	28	-46
25141	-1273	932	1228	-25	28	-46
25146	-1270	933	1238	-47	42	-58
25151	-1266	925	1211	-47	42	-58
25156	-1259	937	1217	-47	42	-58
25161	-1257	926	1242	-47	42	-58
25166	-1238	937	1224	-47	42	-58
25171	-1232	923	1233	-47	42	-58
25176	-1236	932	1216	-37	20	65
25181	-1240	950	1210	-37	20	65
25186	-1250	954	1211	-37	20	65
25191	-1260	952	1199	-37	20	65
25196	-1254	954	1216	-37	20	65
25201	-1253	952	1208	-37	20	65
25206	-1249	945	1207	-32	30	-114
25211	-1254	957	1229	-32	30	-114
25216	-1242	922	1207	-32	30	-114
25221	-1230	903	1221	-32	30	-114
25226	-1232	894	1223	-32	30	-114
25231	-1215	899	1223	-32	30	-114
25236	-1232	909	1213	-71	-4	-85
25241	-1233	925	1223	-71	-4	-85
25246	-1251	946	1228	-71	-4	-85
25251	-1264	955	1228	-71	-4	-85
25256	-1277	979	1238	-71	-4	-85
25261	-1303	1004	1225	-71	-4	-85
25266	-1283	994	1233	-71	-4	-85
25271	-1289	1003	1235	-105	-82	39
25276	-1264	966	1209	-105	-82	39
25281	-1260	957	1213	-105	-82	39
25286	-1241	940	1227	-105	-82	39
25291	-1232	921	1208	-105	-82	39
25296	-1240	898	1207	-105	-82	39
25301	-1244	914	1232	-41	-37	-19
25306	-1252	929	1207	-41	-37	-19
25311	-1261	957	1224	-41	-37	-19
25316	-1262	953	1219	-41	-37	-19
25321	-1262	920	1203	-41	-37	-19
25326	-1258	915	1211	-41	-37	-19
25331	-1230	909	1218	-54	-55	-41
25336	-1224	907	1231	-54	-55	-41
25341	-1231	933	1227	-54	-55	-41
25346	-1253	954	1241	-54	-55	-41
25351	-1249	933	1229	-54	-55	-41
25356	-1256	920	1223	-54	-55	-41
25361	-1243	934	1219	-54	36	-4
25366	-1243	943	1238	-54	36	-4
25371	-1241	943	1249	-54	36	-4
25376	-1248	939	1236	-54	36	-4
25381	-1235	939	1235	-54	36	-4
25386	-1249	919	1227	-54	36	-4
25391	-1224	898	1243	-58	8	-76
25396	-1228	913	1238	-58	8	-76
25401	-1240	913	1238	-58	8	-76
25406	-1259	919	1225	-58	8	-76
25411	-1260	921	1211	-58	8	-76
25416	-1261	950	1215	-58	8	-76
25421	-1271	971	1216	-58	8	-76
25426	-1271	965	1218	-35	8	-46
25431	-1259	954	1224	-35	8	-46
25436	-1237	950	1247	-35	8	-46
25441	-1228	913	1244	-35	8	-46
25446	-1212	894	1226	-35	8	-46
25451	-1236	911	1215	-35	8	-46
25456	-1250	925	1220	-81	-39	15
25461	-1251	951	1241	-81	-39	15
25466	-1252	951	1223	-81	-39	15
25471	-1245	947	1223	-81	-39	15
25476	-1231	932	1245	-81	-39	15
25481	-1225	934	1234	-81	-39	15
25486	-1238	929	1233	-97	-39	-5
25491	-1227	912	1238	-97	-39	-5
25496	-1218	895	1227	-97	-39	-5
25501	-1221	911	1237	-97	-39	-5
25506	-1230	926	1238	-97	-39	-5
25511	-1232	929	1246	-97	-39	-5
25516	-1221	924	1245	-55	-47	49
25521	-1214	928	1235	-55	-47	49
25526	-1235	923	1236	-55	-47	49
25531	-1245	949	1245	-55	-47	49
25536	-1246	951	1207	-55	-47	49
25541	-1263	956	1229	-55	-47	49
25546	-1263	956	1240	-80	-8	46
25551	-1261	964	1240	-80	-8	46
25556	-1258	948	1257	-80	-8	46
25561	-1222	923	1250	-80	-8	46
25566	-1232	904	1248	-80	-8	46
25571	-1228	894	1246	-80	-8	46
25576	-1262	940	1234	-80	-8	46
25581	-1259	960	1233	-19	-2	-73
25586	-1256	955	1237	-19	-2	-73
25591	-1248	940	1242	-19	-2	-73
25596	-1241	926	1246	-19	-2	-73
25601	-1250	920	1238	-19	-2	-73
25606	-1248	939	1243	-19	-2	-73
25611	-1239	930	1269	-42	15	71
25616	-1212	906	1273	-42	15	71
25621	-1203	927	1249	-42	15	71
25626	-1216	927	1259	-42	15	71
25631	-1205	919	1246	-42	15	71
25636	-1203	929	1261	-42	15	71
25641	-1216	946	1247	23	43	-67
25646	-1223	956	1265	23	43	-67
25651	-1230	950	1247	23	43	-67
25656	-1236	955	1246	23	43	-67
25661	-1233	945	1247	23	43	-67
25666	-1243	942	1233	23	43	-67
25671	-1252	948	1236	-53	3	-19
25676	-1242	916	1236	-53	3	-19
25681	-1199	867	1235	-53	3	-19
25686	-1160	829	1254	-53	3	-19
25691	-1163	836	1250	-53	3	-19
25696	-1178	874	1265	-53	3	-19
25701	-1207	921	1252	-71	30	-13
25706	-1238	960	1235	-71	30	-13
25711	-1266	982	1266	-71	30	-13
25716	-1265	965	1237	-71	30	-13
25721	-1269	962	1227	-71	30	-13
25726	-1288	980	1240	-71	30	-13
25731	-1283	973	1221	-71	30	-13
25736	-1255	949	1235	-56	10	36
25741	-1247	937	1242	-56	10	36
25746	-1215	908	1228	-56	10	36
25751	-1219	914	1246	-56	10	36
25756	-1208	902	1270	-56	10	36
25761	-1202	889	1247	-56	10	36
25766	-1208	904	1240	-48	-21	-61
25771	-1238	923	1264	-48	-21	-61
25776	-1240	924	1233	-48	-21	-61
25781	-1246	923	1254	-48	-21	-61
25786	-1226	918	1247	-48	-21	-61
25791	-1236	924	1233	-48	-21	-61
25796	-1231	940	1258	1	48	-7
25801	-1228	939	1249	1	48	-7
25806	-1226	926	1246	1	48	-7
25811	-1230	918	1249	1	48	-7
25816	-1220	943	1246	1	48	-7
25821	-1230	931	1265	1	48	-7
25826	-1219	920	1254	-16	3	12
25831	-1233	922	1257	-16	3	12
25836	-1233	922	1238	-16	3	12
25841	-1226	908	1235	-16	3	12
25846	-1227	910	1236	-16	3	12
25851	-1222	924	1223	-16	3	12
25856	-1240	937	1238	-73	-59	14
25861	-1226	936	1257	-73	-59	14
25866	-1237	961	1246	-73	-59	14
25871	-1229	927	1268	-73	-59	14
25876	-1230	929	1278	-73	-59	14
25881	-1222	926	1264	-73	-59	14
25886	-1219	920	1267	-73	-59	14
25891	-1183	903	1260	-89	-128	122
25896	-1194	906	1254	-89	-128	122
25901	-1183	898	1244	-89	-128	122
25906	-1184	882	1241	-89	-128	122
25911	-1192	926	1239	-89	-128	122
25916	-1235	947	1270	-89	-128	122
25921	-1234	968	1263	-63	-61	-58
25926	-1255	961	1269	-63	-61	-58
25931	-1258	931	1266	-63	-61	-58
25936	-1258	941	1230	-63	-61	-58
25941	-1267	953	1250	-63	-61	-58
25946	-1246	911	1267	-63	-61	-58
25951	-1214	863	1255	-48	-64	43
25956	-1191	857	1285	-48	-64	43
25961	-1183	901	1277	-48	-64	43
25966	-1167	929	1283	-48	-64	43
25971	-1174	905	1303	-48	-64	43
25976	-1200	929	1288	-48	-64	43
25981	-1238	955	1272	-67	-8	-68
25986	-1239	979	1265	-67	-8	-68
25991	-1255	972	1259	-67	-8	-68
25996	-1215	935	1295	-67	-8	-68
26001	-1184	833	1261	-67	-8	-68
26006	-1208	887	1288	-67	-8	-68
26011	-1175	863	1278	-42	0	-23
26016	-1137	831	1276	-42	0	-23
26021	-1151	845	1274	-42	0	-23
26026	-1172	907	1250	-42	0	-23
26031	-1199	935	1251	-42	0	-23
26036	-1240	977	1279	-42	0	-23
26041	-1254	972	1268	-42	0	-23
26046	-1243	958	1295	-26	43	-150
26051	-1234	953	1268	-26	43	-150
26056	-1248	958	1271	-26	43	-150
26061	-1228	949	1277	-26	43	-150
26066	-1214	944	1280	-26	43	-150
26071	-1217	940	1290	-26	43	-150
26076	-1200	934	1283	-18	18	160
26081	-1181	901	1281	-18	18	160
26086	-1159	878	1261	-18	18	160
26091	-1171	872	1291	-18	18	160
26096	-1167	886	1289	-18	18	160
26101	-1188	872	1288	-18	18	160
26106	-1201	912	1295	82	30	-106
26111	-1205	914	1269	82	30	-106
26116	-1224	928	1248	82	30	-106
26121	-1222	946	1236	82	30	-106
26126	-1236	952	1241	82	30	-106
26131	-1237	966	1251	82	30	-106
26136	-1233	960	1252	11	-12	27
26141	-1215	927	1268	11	-12	27
26146	-1190	929	1275	11	-12	27
26151	-1190	948	1289	11	-12	27
26156	-1187	937	1291	11	-12	27
26161	-1180	924	1282	11	-12	27
26166	-1182	899	1294	-5	6	72
26171	-1188	893	1292	-5	6	72
26176	-1185	894	1267	-5	6	72
26181	-1210	903	1256	-5	6	72
26186	-1210	895	1263	-5	6	72
26191	-1234	936	1240	-5	6	72
26196	-1243	977	1243	-5	6	72
26201	-1227	980	1245	-19	15	-24
26206	-1208	954	1255	-19	15	-24
26211	-1204	941	1254	-19	15	-24
26216	-1190	936	1262	-19	15	-24
26221	-1196	947	1266	-19	15	-24
26226	-1216	959	1257	-19	15	-24
26231	-1218	959	1261	-61	3	-24
26236	-1202	921	1250	-61	3	-24
26241	-1196	916	1258	-61	3	-24
26246	-1204	933	1258	-61	3	-24
26251	-1201	937	1247	-61	3	-24
26256	-1217	932	1238	-61	3	-24
26261	-1202	929	1251	28	127	-13
26266	-1207	917	1266	28	127	-13
26271	-1193	909	1254	28	127	-13
26276	-1206	916	1263	28	127	-13
26281	-1199	923	1238	28	127	-13
26286	-1203	910	1277	28	127	-13
26291	-1198	930	1280	-54	25	-29
26296	-1209	947	1270	-54	25	-29
26301	-1220	971	1267	-54	25	-29
26306	-1233	990	1279	-54	25	-29
26311	-1233	995	1272	-54	25	-29
26316	-1229	971	1268	-54	25	-29
26321	-1201	937	1250	21	30	17
26326	-1198	924	1270	21	30	17
26331	-1199	918	1251	21	30	17
26336	-1189	917	1257	21	30	17
26341	-1183	891	1234	21	30	17
26346	-1199	942	1223	21	30	17
26351	-1218	972	1231	21	30	17
26356	-1229	969	1252	36	-5	82
26361	-1225	961	1234	36	-5	82
26366	-1228	949	1239	36	-5	82
26371	-1223	950	1231	36	-5	82
26376	-1213	942	1247	36	-5	82
26381	-1193	910	1250	36	-5	82
26386	-1192	938	1252	27	25	-30
26391	-1196	968	1251	27	25	-30
26396	-1189	967	1255	27	25	-30
26401	-1194	980	1248	27	25	-30
26406	-1205	981	1255	27	25	-30
26411	-1193	982	1249	27	25	-30
26416	-1193	945	1266	43	-39	132
26421	-1180	936	1258	43	-39	132
26426	-1186	934	1245	43	-39	132
26431	-1213	965	1250	43	-39	132
26436	-1228	973	1249	43	-39	132
26441	-1239	969	1240	43	-39	132
26446	-1235	960	1255	28	-35	-71
26451	-1220	990	1241	28	-35	-71
26456	-1226	998	1254	28	-35	-71
26461	-1225	1004	1253	28	-35	-71
26466	-1219	994	1242	28	-35	-71
26471	-1215	988	1227	28	-35	-71
26476	-1199	970	1237	-28	58	-19
26481	-1199	973	1251	-28	58	-19
26486	-1196	956	1246	-28	58	-19
26491	-1194	959	1245	-28	58	-19
26496	-1200	957	1258	-28	58	-19
26501	-1204	976	1221	-28	58	-19
26506	-1204	992	1216	-28	58	-19
26511	-1202	986	1240	-46	42	2
26516	-1211	974	1237	-46	42	2
26521	-1200	970	1240	-46	42	2
26526	-1209	980	1242	-46	42	2
26531	-1218	983	1232	-46	42	2
26536	-1216	984	1246	-46	42	2
26541	-1215	983	1234	-64	-2	44
26546	-1213	982	1239	-64	-2	44
26551	-1215	996	1244	-64	-2	44
26556	-1205	982	1240	-64	-2	44
26561	-1199	957	1247	-64	-2	44
26566	-1192	970	1229	-64	-2	44
26571	-1187	965	1244	-64	48	-24
26576	-1173	961	1231	-64	48	-24
26581	-1192	979	1243	-64	48	-24
26586	-1197	993	1248	-64	48	-24
26591	-1216	997	1233	-64	48	-24
26596	-1217	981	1217	-64	48	-24
26601	-1225	995	1242	-86	9	-44
26606	-1218	1017	1234	-86	9	-44
26611	-1217	993	1241	-86	9	-44
26616	-1210	966	1232	-86	9	-44
26621	-1207	970	1253	-86	9	-44
26626	-1203	977	1240	-86	9	-44
26631	-1207	957	1236	-26	70	-16
26636	-1198	952	1234	-26	70	-16
26641	-1199	965	1245	-26	70	-16
26646	-1194	982	1245	-26	70	-16
26651	-1168	992	1236	-26	70	-16
26656	-1182	974	1248	-26	70	-16
26661	-1176	978	1245	-26	70	-16
26666	-1196	995	1227	29	73	-145
26671	-1199	993	1244	29	73	-145
26676	-1204	981	1227	29	73	-145
26681	-1222	992	1214	29	73	-145
26686	-1225	1006	1220	29	73	-145
26691	-1237	1010	1220	29	73	-145
26696	-1230	1001	1225	-57	-10	62
26701	-1221	982	1228	-57	-10	62
26706	-1204	977	1241	-57	-10	62
26711	-1194	976	1250	-57	-10	62
26716	-1207	969	1243	-57	-10	62
26721	-1183	989	1240	-57	-10	62
26726	-1195	976	1216	-54	20	-121
26731	-1199	973	1226	-54	20	-121
26736	-1212	980	1232	-54	20	-121
26741	-1211	985	1226	-54	20	-121
26746	-1201	983	1221	-54	20	-121
26751	-1207	1002	1222	-54	20	-121
26756	-1194	993	1246	33	-18	-63
26761	-1190	976	1235	33	-18	-63
26766	-1184	978	1244	33	-18	-63
26771	-1185	995	1234	33	-18	-63
26776	-1189	988	1213	33	-18	-63
26781	-1197	995	1223	33	-18	-63
26786	-1218	1007	1227	-12	-2	162
26791	-1212	989	1250	-12	-2	162
26796	-1203	1004	1251	-12	-2	162
26801	-1204	1005	1222	-12	-2	162
26806	-1209	989	1256	-12	-2	162
26811	-1184	975	1227	-12	-2	162
26816	-1184	973	1241	-12	-2	162
26821	-1177	975	1249	-68	6	-17
26826	-1171	964	1243	-68	6	-17
26831	-1177	962	1257	-68	6	-17
26836	-1182	982	1212	-68	6	-17
26841	-1197	1008	1251	-68	6	-17
26846	-1223	1003	1237	-68	6	-17
