time	accelerometer_x	accelerometer_y	accelerometer_z	gyroscope_x	gyroscope_y	gyroscope_z
16001	-12	-106	1925	-81	38	-30
16006	-6	-94	1912	-81	38	-30
16011	-13	-106	1907	-81	38	-30
16016	-17	-108	1918	-81	38	-30
16021	-13	-108	1919	-81	38	-30
16026	-8	-101	1920	-81	38	-30
16031	-3	-102	1923	-64	-3	-26
16036	-9	-103	1919	-64	-3	-26
16041	-6	-105	1915	-64	-3	-26
16046	-5	-109	1916	-64	-3	-26
16051	-9	-106	1919	-64	-3	-26
16056	-11	-105	1932	-64	-3	-26
16061	-9	-104	1910	-32	47	-14
16066	-2	-99	1918	-32	47	-14
16071	-7	-108	1920	-32	47	-14
16076	-8	-100	1923	-32	47	-14
16081	-6	-108	1926	-32	47	-14
16086	-5	-96	1912	-32	47	-14
16091	-12	-107	1919	-36	-13	-5
16096	-6	-106	1901	-36	-13	-5
16101	2	-100	1904	-36	-13	-5
16106	-8	-104	1907	-36	-13	-5
16111	3	-106	1919	-36	-13	-5
16116	-6	-99	1932	-36	-13	-5
16121	-10	-103	1914	-36	-13	-5
16126	-12	-104	1921	-15	-13	71
16131	-7	-111	1922	-15	-13	71
16136	-8	-95	1921	-15	-13	71
16141	-7	-101	1933	-15	-13	71
16146	-7	-104	1915	-15	-13	71
16151	-11	-100	1923	-15	-13	71
16156	-6	-108	1918	-34	31	58
16161	-9	-101	1904	-34	31	58
16166	-4	-109	1906	-34	31	58
16171	-9	-96	1918	-34	31	58
16176	0	-104	1900	-34	31	58
16181	-11	-105	1936	-34	31	58
16186	-14	-106	1921	3	24	-16
16191	-12	-98	1916	3	24	-16
16196	-1	-96	1942	3	24	-16
16201	-8	-105	1915	3	24	-16
16206	-10	-101	1918	3	24	-16
16211	-1	-113	1928	3	24	-16
16216	-12	-100	1911	-41	90	-48
16221	-2	-110	1944	-41	90	-48
16226	-2	-99	1926	-41	90	-48
16231	-14	-102	1915	-41	90	-48
16236	2	-97	1917	-41	90	-48
16241	-9	-108	1922	-41	90	-48
16246	-12	-103	1910	-80	58	115
16251	-8	-110	1922	-80	58	115
16256	-17	-100	1907	-80	58	115
16261	-10	-105	1921	-80	58	115
16266	-3	-105	1928	-80	58	115
16271	-10	-112	1922	-80	58	115
16276	-2	-101	1916	-80	58	115
16281	-11	-107	1915	-74	31	2
16286	-2	-101	1911	-74	31	2
16291	-5	-102	1935	-74	31	2
16296	-13	-103	1908	-74	31	2
16301	-2	-100	1915	-74	31	2
16306	-11	-103	1917	-74	31	2
16311	-2	-106	1925	-63	17	4
16316	-5	-100	1912	-63	17	4
16321	-2	-104	1916	-63	17	4
16326	-5	-89	1919	-63	17	4
16331	-12	-99	1922	-63	17	4
16336	-1	-96	1901	-63	17	4
16341	-7	-104	1928	39	59	-12
16346	2	-103	1922	39	59	-12
16351	-9	-107	1931	39	59	-12
16356	-17	-105	1923	39	59	-12
16361	-12	-107	1913	39	59	-12
16366	-14	-104	1929	39	59	-12
16371	-3	-107	1928	-22	-32	39
16376	-4	-98	1919	-22	-32	39
16381	-9	-101	1923	-22	-32	39
16386	-13	-108	1924	-22	-32	39
16391	-11	-107	1908	-22	-32	39
16396	-3	-103	1937	-22	-32	39
16401	-3	-105	1925	-52	38	-4
16406	-2	-101	1921	-52	38	-4
16411	-8	-102	1911	-52	38	-4
16416	-11	-93	1908	-52	38	-4
16421	-11	-103	1911	-52	38	-4
16426	-9	-104	1921	-52	38	-4
16431	-7	-103	1899	-52	38	-4
16436	-8	-111	1919	-269	-27	-23
16441	-6	-106	1928	-269	-27	-23
16446	-10	-92	1921	-269	-27	-23
16451	-11	-82	1910	-269	-27	-23
16456	-3	-81	1926	-269	-27	-23
16461	-5	-88	1931	-269	-27	-23
16466	-1	-214	1891	182	27	-20
16471	-22	-707	1875	182	27	-20
16476	-87	-180	2062	182	27	-20
16481	-88	223	2157	182	27	-20
16486	-184	-30	1879	182	27	-20
16491	-182	152	1966	182	27	-20
16496	-68	88	2006	128	37	-171
16501	17	-85	1951	128	37	-171
16506	40	-67	1901	128	37	-171
16511	31	-127	1954	128	37	-171
16516	-1	-127	1905	128	37	-171
16521	-29	-35	1893	128	37	-171
16526	-19	37	1912	96	233	-140
16531	-80	-9	1931	96	233	-140
16536	-76	-86	1992	96	233	-140
16541	13	-48	1949	96	233	-140
16546	-13	-3	1963	96	233	-140
16551	-59	-8	2061	96	233	-140
16556	-121	-34	2109	-276	266	-434
16561	-95	45	2088	-276	266	-434
16566	-59	23	1993	-276	266	-434
16571	-40	44	1947	-276	266	-434
16576	-4	60	1882	-276	266	-434
16581	9	50	1860	-276	266	-434
16586	29	-18	1884	-276	266	-434
16591	6	-35	1906	-143	399	-169
16596	-39	-31	1970	-143	399	-169
16601	-113	-65	2036	-143	399	-169
16606	-112	-102	2085	-143	399	-169
16611	-111	-103	2042	-143	399	-169
16616	-78	-119	1947	-143	399	-169
16621	-4	-92	1864	-52	291	-124
16626	-69	-9	1820	-52	291	-124
16631	-140	-19	1876	-52	291	-124
16636	-156	-21	1884	-52	291	-124
16641	-172	-21	1947	-52	291	-124
16646	-205	-55	1953	-52	291	-124
16651	-207	-85	1975	12	410	-51
16656	-221	-96	1982	12	410	-51
16661	-245	-103	1964	12	410	-51
16666	-259	-83	1958	12	410	-51
16671	-296	-77	2002	12	410	-51
16676	-297	-74	1954	12	410	-51
16681	-313	-68	1955	25	398	-40
16686	-343	-86	1957	25	398	-40
16691	-378	-74	1971	25	398	-40
16696	-349	-48	1864	25	398	-40
16701	-358	-61	1830	25	398	-40
16706	-306	-64	1768	25	398	-40
16711	-272	-60	1698	-96	293	-77
16716	-272	-82	1764	-96	293	-77
16721	-271	-54	1706	-96	293	-77
16726	-310	-87	1919	-96	293	-77
16731	-324	-112	1900	-96	293	-77
16736	-316	-100	1881	-96	293	-77
16741	-328	-63	1890	-96	293	-77
16746	-292	-81	1871	1181	175	77
16751	-287	-112	1826	1181	175	77
16756	-261	-124	1863	1181	175	77
16761	-262	-112	1973	1181	175	77
16766	-271	-98	1895	1181	175	77
16771	57	-766	1772	1181	175	77
16776	-406	-14	1892	150	355	-101
16781	-457	194	1721	150	355	-101
16786	36	-90	1948	150	355	-101
16791	-200	-194	1949	150	355	-101
16796	-206	32	2066	150	355	-101
16801	-332	59	1924	150	355	-101
16806	-353	-37	1889	985	489	-222
16811	-392	-56	1925	985	489	-222
16816	-335	-46	1852	985	489	-222
16821	-426	31	1957	985	489	-222
16826	-489	74	1939	985	489	-222
16831	-556	49	2096	985	489	-222
16836	-537	9	2016	1203	318	-7
16841	-375	145	2229	1203	318	-7
16846	-597	215	1843	1203	318	-7
16851	-393	71	1646	1203	318	-7
16856	-323	126	1758	1203	318	-7
16861	-420	141	1595	1203	318	-7
16866	-381	252	1698	1480	96	-194
16871	-436	212	1651	1480	96	-194
16876	-397	218	1726	1480	96	-194
16881	-434	266	1827	1480	96	-194
16886	-423	367	1782	1480	96	-194
16891	-410	349	1722	1480	96	-194
16896	-463	411	1684	1480	96	-194
16901	-432	431	1721	1118	-86	-59
16906	-493	431	1661	1118	-86	-59
16911	-512	527	1703	1118	-86	-59
16916	-521	575	1743	1118	-86	-59
16921	-512	557	1683	1118	-86	-59
16926	-486	536	1630	1118	-86	-59
16931	-482	547	1574	268	188	-108
16936	-508	583	1603	268	188	-108
16941	-548	717	1746	268	188	-108
16946	-570	693	2099	268	188	-108
16951	-507	684	2118	268	188	-108
16956	-518	697	2025	268	188	-108
16961	-581	650	1907	445	142	33
16966	-539	901	1807	445	142	33
16971	-551	738	1706	445	142	33
16976	-410	654	1643	445	142	33
16981	-490	701	1756	445	142	33
16986	-503	732	1718	445	142	33
16991	-501	749	1697	156	129	-199
16996	-531	736	1746	156	129	-199
17001	-584	766	1711	156	129	-199
17006	-526	793	1688	156	129	-199
17011	-572	794	1622	156	129	-199
17016	-568	847	1676	156	129	-199
17021	-566	821	1663	-83	-19	2
17026	-500	761	1637	-83	-19	2
17031	-535	821	1599	-83	-19	2
17036	-570	766	1325	-83	-19	2
17041	-469	804	1807	-83	-19	2
17046	-475	756	1645	-83	-19	2
17051	-448	741	1661	-83	-19	2
17056	-423	737	1635	47	22	74
17061	-408	719	1571	47	22	74
17066	-535	858	1758	47	22	74
17071	-552	897	1781	47	22	74
17076	-523	876	1798	47	22	74
17081	-529	887	1775	47	22	74
17086	-562	909	1730	9	5	27
17091	-533	877	1692	9	5	27
17096	-527	853	1679	9	5	27
17101	-547	835	1659	9	5	27
17106	-548	821	1617	9	5	27
17111	-549	842	1616	9	5	27
17116	-564	831	1606	199	-6	-32
17121	-556	841	1615	199	-6	-32
17126	-541	859	1585	199	-6	-32
17131	-529	849	1599	199	-6	-32
17136	-581	851	1671	199	-6	-32
17141	-533	877	1681	199	-6	-32
17146	-566	892	1681	69	35	-1
17151	-570	875	1636	69	35	-1
17156	-554	886	1597	69	35	-1
17161	-572	868	1632	69	35	-1
17166	-575	891	1646	69	35	-1
17171	-617	885	1689	69	35	-1
17176	-575	894	1727	37	17	-17
17181	-531	895	1716	37	17	-17
17186	-519	866	1664	37	17	-17
17191	-496	860	1663	37	17	-17
17196	-489	843	1647	37	17	-17
17201	-519	851	1657	37	17	-17
17206	-551	907	1668	37	17	-17
17211	-554	921	1662	150	-55	-156
17216	-549	903	1663	150	-55	-156
17221	-558	889	1617	150	-55	-156
17226	-553	938	1604	150	-55	-156
17231	-560	923	1610	150	-55	-156
17236	-575	924	1612	150	-55	-156
17241	-538	887	1606	271	-78	109
17246	-512	872	1597	271	-78	109
17251	-550	866	1609	271	-78	109
17256	-555	886	1630	271	-78	109
17261	-551	803	1642	271	-78	109
17266	-543	806	1658	271	-78	109
17271	-503	904	1650	442	40	29
17276	-542	942	1709	442	40	29
17281	-581	1001	1733	442	40	29
17286	-538	1023	1714	442	40	29
17291	-571	1008	1678	442	40	29
17296	-671	1042	1655	442	40	29
17301	-608	1035	1613	372	28	-7
17306	-629	1039	1642	372	28	-7
17311	-573	974	1613	372	28	-7
17316	-569	930	1586	372	28	-7
17321	-506	919	1570	372	28	-7
17326	-477	942	1556	372	28	-7
17331	-480	956	1592	195	50	-17
17336	-481	961	1604	195	50	-17
17341	-503	997	1594	195	50	-17
17346	-553	1052	1584	195	50	-17
17351	-597	1099	1597	195	50	-17
17356	-582	1090	1567	195	50	-17
17361	-577	1084	1546	195	50	-17
17366	-534	1063	1546	174	84	-48
17371	-524	1060	1566	174	84	-48
17376	-527	1067	1562	174	84	-48
17381	-543	1061	1534	174	84	-48
17386	-536	1060	1508	174	84	-48
17391	-532	1066	1518	174	84	-48
17396	-552	1092	1531	52	58	-12
17401	-567	1103	1508	52	58	-12
17406	-746	1096	1585	52	58	-12
17411	-604	1112	1565	52	58	-12
17416	-596	1136	1567	52	58	-12
17421	-601	1132	1571	52	58	-12
17426	-617	1140	1598	104	-5	-51
17431	-553	1081	1574	104	-5	-51
17436	-529	1045	1522	104	-5	-51
17441	-482	1021	1481	104	-5	-51
17446	-493	1024	1453	104	-5	-51
17451	-508	1049	1456	104	-5	-51
17456	-528	1066	1477	28	39	-18
17461	-520	1089	1510	28	39	-18
17466	-524	1095	1562	28	39	-18
17471	-561	1128	1615	28	39	-18
17476	-565	1133	1595	28	39	-18
17481	-557	1132	1548	28	39	-18
17486	-563	1113	1530	-22	4	56
17491	-562	1097	1511	-22	4	56
17496	-547	1096	1499	-22	4	56
17501	-541	1086	1514	-22	4	56
17506	-533	1074	1507	-22	4	56
17511	-576	1110	1491	-22	4	56
17516	-564	1123	1527	-22	4	56
17521	-566	1107	1542	-36	15	-24
17526	-567	1101	1529	-36	15	-24
17531	-564	1113	1513	-36	15	-24
17536	-568	1101	1517	-36	15	-24
17541	-573	1085	1529	-36	15	-24
17546	-577	1070	1499	-36	15	-24
17551	-572	1074	1509	-73	52	-20
17556	-579	1096	1542	-73	52	-20
17561	-561	1105	1547	-73	52	-20
17566	-566	1098	1557	-73	52	-20
17571	-568	1101	1545	-73	52	-20
17576	-581	1099	1554	-73	52	-20
17581	-580	1118	1513	-54	25	-68
17586	-569	1115	1493	-54	25	-68
17591	-568	1130	1501	-54	25	-68
17596	-567	1116	1497	-54	25	-68
17601	-569	1117	1510	-54	25	-68
17606	-572	1141	1512	-54	25	-68
17611	-574	1135	1544	-70	52	9
17616	-574	1120	1528	-70	52	9
17621	-567	1098	1528	-70	52	9
17626	-570	1096	1528	-70	52	9
17631	-577	1106	1546	-70	52	9
17636	-578	1098	1554	-70	52	9
17641	-570	1084	1537	48	-15	34
17646	-570	1076	1527	48	-15	34
17651	-576	1100	1525	48	-15	34
17656	-581	1088	1521	48	-15	34
17661	-585	1082	1508	48	-15	34
17666	-575	1081	1489	48	-15	34
17671	-579	1099	1492	48	-15	34
17676	-577	1100	1517	53	9	2
17681	-574	1112	1524	53	9	2
17686	-570	1099	1519	53	9	2
17691	-576	1112	1509	53	9	2
17696	-563	1130	1521	53	9	2
17701	-571	1134	1546	53	9	2
17706	-559	1129	1529	34	28	55
17711	-566	1126	1511	34	28	55
17716	-584	1127	1516	34	28	55
17721	-571	1135	1511	34	28	55
17726	-574	1130	1513	34	28	55
17731	-563	1116	1508	34	28	55
17736	-570	1123	1501	35	0	-56
17741	-570	1124	1507	35	0	-56
17746	-572	1114	1511	35	0	-56
17751	-585	1119	1502	35	0	-56
17756	-576	1139	1517	35	0	-56
17761	-568	1139	1511	35	0	-56
17766	-564	1142	1522	-48	-8	-40
17771	-566	1135	1522	-48	-8	-40
17776	-566	1127	1508	-48	-8	-40
17781	-568	1124	1496	-48	-8	-40
17786	-577	1125	1502	-48	-8	-40
17791	-573	1131	1509	-48	-8	-40
17796	-567	1131	1515	-32	39	7
17801	-565	1129	1499	-32	39	7
17806	-566	1124	1502	-32	39	7
17811	-577	1127	1502	-32	39	7
17816	-566	1129	1505	-32	39	7
17821	-558	1138	1523	-32	39	7
17826	-571	1131	1517	-32	39	7
17831	-571	1147	1513	-29	-6	50
17836	-569	1125	1495	-29	-6	50
17841	-568	1135	1468	-29	-6	50
17846	-569	1129	1484	-29	-6	50
17851	-538	1114	1486	-29	-6	50
17856	-584	1111	1484	-29	-6	50
17861	-586	1147	1507	-82	30	-65
17866	-579	1141	1512	-82	30	-65
17871	-568	1142	1510	-82	30	-65
17876	-574	1124	1518	-82	30	-65
17881	-558	1115	1536	-82	30	-65
17886	-542	1120	1509	-82	30	-65
17891	-508	1090	1493	20	-130	-14
17896	-509	1086	1504	20	-130	-14
17901	-492	1096	1492	20	-130	-14
17906	-562	1120	1481	20	-130	-14
17911	-530	1169	1543	20	-130	-14
17916	-574	1146	1549	20	-130	-14
17921	-582	1160	1538	45	-2	48
17926	-584	1149	1501	45	-2	48
17931	-552	1145	1515	45	-2	48
17936	-572	1156	1522	45	-2	48
17941	-586	1157	1512	45	-2	48
17946	-597	1167	1513	45	-2	48
17951	-574	1151	1516	-9	24	61
17956	-557	1135	1514	-9	24	61
17961	-564	1125	1509	-9	24	61
17966	-559	1131	1503	-9	24	61
17971	-562	1137	1507	-9	24	61
17976	-560	1132	1474	-9	24	61
17981	-557	1146	1473	-9	24	61
17986	-559	1146	1505	-71	8	14
17991	-556	1147	1492	-71	8	14
17996	-555	1159	1495	-71	8	14
18001	-538	1166	1509	-71	8	14
18006	-488	1118	1512	-71	8	14
18011	-530	1138	1529	-71	8	14
18016	-543	1145	1506	-75	-2	-35
18021	-521	1136	1482	-75	-2	-35
18026	-545	1139	1489	-75	-2	-35
18031	-577	1150	1497	-75	-2	-35
18036	-547	1127	1467	-75	-2	-35
18041	-576	1145	1508	-75	-2	-35
18046	-607	1159	1500	-114	7	62
18051	-597	1163	1506	-114	7	62
18056	-606	1145	1542	-114	7	62
18061	-563	1137	1525	-114	7	62
18066	-556	1114	1527	-114	7	62
18071	-555	1133	1521	-114	7	62
18076	-562	1134	1508	-59	34	-32
18081	-549	1133	1512	-59	34	-32
18086	-557	1134	1508	-59	34	-32
18091	-553	1131	1492	-59	34	-32
18096	-547	1135	1509	-59	34	-32
18101	-560	1133	1510	-59	34	-32
18106	-546	1126	1506	-58	60	-121
18111	-553	1126	1507	-58	60	-121
18116	-554	1140	1505	-58	60	-121
18121	-556	1124	1503	-58	60	-121
18126	-554	1139	1515	-58	60	-121
18131	-554	1155	1521	-58	60	-121
18136	-551	1160	1511	-58	60	-121
18141	-543	1151	1494	-51	-2	8
18146	-545	1152	1495	-51	-2	8
18151	-547	1158	1492	-51	-2	8
18156	-544	1145	1499	-51	-2	8
18161	-548	1153	1496	-51	-2	8
18166	-536	1157	1517	-51	-2	8
18171	-550	1140	1508	-140	4	2
18176	-543	1151	1509	-140	4	2
18181	-552	1125	1509	-140	4	2
18186	-554	1135	1501	-140	4	2
18191	-556	1125	1498	-140	4	2
18196	-554	1114	1514	-140	4	2
18201	-558	1120	1504	-35	37	-29
18206	-548	1124	1500	-35	37	-29
18211	-552	1126	1500	-35	37	-29
18216	-558	1137	1505	-35	37	-29
18221	-550	1129	1519	-35	37	-29
18226	-549	1134	1522	-35	37	-29
18231	-538	1127	1522	-26	5	-81
18236	-545	1138	1516	-26	5	-81
18241	-549	1149	1512	-26	5	-81
18246	-545	1121	1513	-26	5	-81
18251	-558	1128	1501	-26	5	-81
18256	-549	1141	1511	-26	5	-81
18261	-545	1135	1502	-55	7	-15
18266	-546	1136	1485	-55	7	-15
18271	-547	1135	1501	-55	7	-15
18276	-537	1148	1517	-55	7	-15
18281	-556	1142	1519	-55	7	-15
18286	-543	1136	1516	-55	7	-15
18291	-555	1151	1505	-55	7	-15
18296	-548	1151	1501	-25	43	-102
18301	-547	1133	1493	-25	43	-102
18306	-540	1131	1478	-25	43	-102
18311	-544	1142	1504	-25	43	-102
18316	-538	1144	1511	-25	43	-102
18321	-551	1153	1509	-25	43	-102
18326	-551	1152	1508	-74	-16	81
18331	-545	1144	1509	-74	-16	81
18336	-538	1135	1520	-74	-16	81
18341	-550	1128	1509	-74	-16	81
18346	-547	1138	1500	-74	-16	81
18351	-548	1155	1504	-74	-16	81
18356	-555	1170	1503	-65	2	43
18361	-582	1189	1509	-65	2	43
18366	-563	1173	1510	-65	2	43
18371	-537	1141	1509	-65	2	43
18376	-545	1140	1499	-65	2	43
18381	-540	1134	1524	-65	2	43
18386	-546	1135	1515	-52	-12	7
18391	-528	1131	1507	-52	-12	7
18396	-510	1116	1507	-52	-12	7
18401	-533	1121	1517	-52	-12	7
18406	-529	1119	1503	-52	-12	7
18411	-546	1126	1509	-52	-12	7
18416	-543	1130	1497	1	11	36
18421	-542	1123	1495	1	11	36
18426	-547	1127	1515	1	11	36
18431	-538	1130	1508	1	11	36
18436	-535	1144	1507	1	11	36
18441	-537	1157	1510	1	11	36
18446	-537	1154	1506	1	11	36
18451	-540	1160	1489	-25	17	4
18456	-540	1174	1486	-25	17	4
18461	-535	1165	1475	-25	17	4
18466	-536	1153	1494	-25	17	4
18471	-534	1174	1502	-25	17	4
18476	-531	1163	1507	-25	17	4
18481	-530	1171	1522	-28	31	48
18486	-527	1174	1504	-28	31	48
18491	-535	1161	1508	-28	31	48
18496	-522	1156	1506	-28	31	48
18501	-538	1164	1509	-28	31	48
18506	-544	1152	1507	-28	31	48
18511	-532	1168	1488	11	52	-102
18516	-541	1168	1488	11	52	-102
18521	-574	1196	1497	11	52	-102
18526	-559	1178	1502	11	52	-102
18531	-549	1178	1516	11	52	-102
18536	-533	1168	1499	11	52	-102
18541	-539	1183	1504	-17	13	75
18546	-514	1163	1506	-17	13	75
18551	-524	1145	1498	-17	13	75
18556	-516	1159	1488	-17	13	75
18561	-528	1162	1495	-17	13	75
18566	-530	1160	1497	-17	13	75
18571	-537	1176	1507	-68	13	52
18576	-526	1177	1497	-68	13	52
18581	-524	1166	1506	-68	13	52
18586	-519	1166	1510	-68	13	52
18591	-538	1183	1512	-68	13	52
18596	-539	1180	1482	-68	13	52
18601	-542	1155	1480	-68	13	52
18606	-536	1157	1469	-51	27	-5
18611	-535	1154	1477	-51	27	-5
18616	-548	1147	1469	-51	27	-5
18621	-532	1145	1491	-51	27	-5
18626	-541	1145	1499	-51	27	-5
18631	-531	1149	1527	-51	27	-5
18636	-526	1154	1530	-60	9	-23
18641	-540	1151	1514	-60	9	-23
18646	-536	1164	1514	-60	9	-23
18651	-532	1162	1497	-60	9	-23
18656	-536	1158	1488	-60	9	-23
18661	-526	1174	1469	-60	9	-23
18666	-533	1170	1488	-119	96	-40
18671	-528	1166	1503	-119	96	-40
18676	-525	1167	1530	-119	96	-40
18681	-535	1158	1525	-119	96	-40
18686	-533	1153	1520	-119	96	-40
18691	-539	1150	1510	-119	96	-40
18696	-526	1159	1501	-58	47	-12
18701	-533	1148	1500	-58	47	-12
18706	-540	1137	1489	-58	47	-12
18711	-536	1146	1485	-58	47	-12
18716	-538	1151	1484	-58	47	-12
18721	-545	1161	1497	-58	47	-12
18726	-546	1144	1480	-64	8	7
18731	-541	1151	1479	-64	8	7
18736	-533	1161	1488	-64	8	7
18741	-534	1156	1482	-64	8	7
18746	-529	1155	1484	-64	8	7
18751	-534	1177	1471	-64	8	7
18756	-539	1172	1502	-64	8	7
18761	-533	1164	1524	-35	-3	20
18766	-523	1165	1527	-35	-3	20
18771	-527	1174	1528	-35	-3	20
18776	-527	1175	1536	-35	-3	20
18781	-532	1175	1511	-35	-3	20
18786	-539	1153	1486	-35	-3	20
18791	-530	1156	1484	-55	-20	70
18796	-529	1147	1465	-55	-20	70
18801	-527	1162	1472	-55	-20	70
18806	-534	1157	1496	-55	-20	70
18811	-540	1167	1507	-55	-20	70
18816	-532	1173	1513	-55	-20	70
18821	-525	1183	1528	-83	-39	-84
18826	-520	1163	1525	-83	-39	-84
18831	-525	1162	1515	-83	-39	-84
18836	-542	1151	1509	-83	-39	-84
18841	-532	1135	1492	-83	-39	-84
18846	-541	1143	1492	-83	-39	-84
18851	-531	1147	1498	-91	35	-17
18856	-532	1144	1497	-91	35	-17
18861	-528	1153	1500	-91	35	-17
18866	-530	1145	1519	-91	35	-17
18871	-529	1146	1532	-91	35	-17
18876	-534	1144	1520	-91	35	-17
18881	-531	1135	1495	-44	-29	-20
18886	-533	1144	1490	-44	-29	-20
18891	-532	1133	1493	-44	-29	-20
18896	-532	1129	1489	-44	-29	-20
18901	-524	1137	1517	-44	-29	-20
18906	-531	1154	1516	-44	-29	-20
18911	-523	1156	1524	-44	-29	-20
18916	-525	1148	1527	94	1181	584
18921	-529	1144	1512	94	1181	584
18926	-534	1140	1498	94	1181	584
17866	-65	-857	-7	94	1181	584
17871	15	-704	-69	94	1181	584
17876	377	-1236	-852	94	1181	584
17881	621	-1193	-946	94	1181	584
17886	362	-346	1210	94	1181	584
17891	-395	-977	1965	94	1181	584
17896	-345	-1639	1655	94	1181	584
17901	-284	-1725	1766	94	1181	584
17906	-498	-1655	1678	94	1181	584
17911	-495	-1570	1876	94	1181	584
17916	-339	-1719	1705	94	1181	584
17921	-184	-1834	1538	94	1181	584
17926	-151	-1866	1177	94	1181	584
17931	55	-1543	476	94	1181	584
17936	420	-1907	1125	94	1181	584
17941	292	-2274	1393	94	1181	584
17946	-174	-3860	2571	94	1181	584
17951	-865	-4083	1994	94	1181	584
17956	-1145	-4990	1074	94	1181	584
17961	795	-962	-1002	94	1181	584
17966	1477	-852	-395	94	1181	584
17971	1286	-1276	-1131	94	1181	584
17976	1273	-1651	-1397	94	1181	584
17981	1269	-2103	-1203	94	1181	584
17986	1143	-2441	-1033	94	1181	584
17991	1049	-2711	-523	94	1181	584
17996	757	-3286	495	94	1181	584