time	accelerometer_x	accelerometer_y	accelerometer_z	gyroscope_x	gyroscope_y	gyroscope_z	
1	-1774	790	116	442	1331	-120
6	-1649	1129	212	-840	622	-588
11	-1846	1034	580	-840	622	-588
16	-1852	898	849	-840	622	-588
21	-1923	930	656	-840	622	-588
26	-2271	1063	58	-840	622	-588
31	-2567	1069	-377	-840	622	-588
36	-2449	896	-532	-869	131	-1174
41	-2358	815	-399	-869	131	-1174
46	-2484	885	-259	-869	131	-1174
51	-2488	937	61	-869	131	-1174
56	-2623	812	391	-869	131	-1174
61	-2788	741	591	-869	131	-1174
66	-2919	732	745	-495	242	-1125
71	-2984	713	577	-495	242	-1125
76	-2930	760	207	-495	242	-1125
81	-2753	827	-31	-495	242	-1125
86	-2536	884	-183	-495	242	-1125
104	-2141	788	-33	-495	242	-1125
106	-2056	813	-19	-1101	-26	-1724
111	-1832	852	-13	-1101	-26	-1724
116	-1614	757	24	-1101	-26	-1724
121	-1395	622	66	-1101	-26	-1724
126	-1167	450	66	-1415	-384	-140
131	-782	150	84	-1415	-384	-140
136	-585	-183	94	-1415	-384	-140
141	-283	-325	131	-1415	-384	-140
146	160	-291	127	-1415	-384	-140
151	549	-295	79	-1415	-384	-140
156	728	-523	63	-1415	-384	-140
161	779	-843	147	-1964	-678	1716
166	788	-1174	321	-1964	-678	1716
171	641	-1101	601	-1964	-678	1716
176	490	-587	933	-1964	-678	1716
181	277	-49	1286	-1964	-678	1716
186	-234	574	1582	-1964	-678	1716
191	-920	966	1842	-609	833	1213
196	-1704	974	1717	-609	833	1213
201	-2700	951	1201	-609	833	1213
206	-4048	1394	659	-609	833	1213
211	-5595	2305	-136	-609	833	1213
216	-7081	3139	-799	-609	833	1213
221	-8197	3003	-1277	-1190	-1016	-2814
226	-8300	2255	-1555	-1190	-1016	-2814
231	-6689	2231	-1457	-1190	-1016	-2814
236	-5519	1895	-1210	-1190	-1016	-2814
241	-4472	1179	-1031	-1190	-1016	-2814
246	-3397	724	-811	-1190	-1016	-2814
251	-2261	455	-720	-1803	-333	-1498
256	-1324	329	-722	-1803	-333	-1498
261	-440	298	-734	-1803	-333	-1498
266	379	227	-779	-1803	-333	-1498
271	998	60	-791	-1803	-333	-1498
276	1674	-165	-651	-1803	-333	-1498
281	2275	-539	-440	464	261	4779
286	2584	-1096	-239	464	261	4779
291	2584	-1644	-247	464	261	4779
296	2439	-2026	-345	464	261	4779
301	2266	-2078	-526	464	261	4779
306	1948	-1524	-501	464	261	4779
311	1394	-570	-106	464	261	4779
316	567	188	370	-1007	1595	2038
321	-757	1250	840	-1007	1595	2038
326	-2303	2329	1009	-1007	1595	2038
331	-3994	3071	596	-1007	1595	2038
336	-5355	3176	298	-1007	1595	2038
341	-6616	2906	423	-1007	1595	2038
346	-7357	2630	282	37	-885	-2156
351	-7552	2573	-351	37	-885	-2156
356	-7406	2713	-1175	37	-885	-2156
361	-6965	2513	-1826	37	-885	-2156
366	-6274	2002	-1976	37	-885	-2156
371	-5603	1520	-1499	37	-885	-2156
376	-4883	1208	-837	-520	-450	-3064
381	-4217	1029	-317	-520	-450	-3064
386	-3536	870	84	-520	-450	-3064
391	-2880	822	265	-520	-450	-3064
396	-2145	859	283	-520	-450	-3064
401	-1464	874	175	-520	-450	-3064
406	-853	951	101	-605	677	-1836
411	-150	1061	30	-605	677	-1836
416	605	1018	-102	-605	677	-1836
421	1273	726	-252	-605	677	-1836
426	1859	309	-493	-605	677	-1836
431	2343	-367	-936	-605	677	-1836
436	2620	-939	-1279	693	-550	3916
441	2877	-1072	-1360	693	-550	3916
446	2954	-1154	-1330	693	-550	3916
451	2827	-1411	-1119	693	-550	3916
456	2502	-1667	-684	693	-550	3916
461	2003	-1654	-294	693	-550	3916
466	1421	-1128	79	693	-550	3916
471	681	-553	626	-382	3869	2529
476	-598	335	1571	-382	3869	2529
481	-2151	1645	2437	-382	3869	2529
486	-3599	2684	2768	-382	3869	2529
491	-5014	3154	1641	-382	3869	2529
496	-6047	3120	157	-382	3869	2529
501	-6873	2967	-1283	657	-321	-1650
506	-7568	3053	-2220	657	-321	-1650
511	-7748	3094	-2472	657	-321	-1650
516	-7688	2918	-2258	657	-321	-1650
521	-7385	2572	-1791	657	-321	-1650
526	-6739	2306	-1379	657	-321	-1650
531	-5870	2198	-1107	288	-1315	-3707
536	-4873	2054	-1000	288	-1315	-3707
541	-3977	1811	-910	288	-1315	-3707
546	-2946	1625	-725	288	-1315	-3707
551	-1811	1570	-576	288	-1315	-3707
556	-464	1439	-452	288	-1315	-3707
561	575	1006	-387	-82	-220	-1422
566	1456	376	-236	-82	-220	-1422
571	2160	-77	-134	-82	-220	-1422
576	2643	-366	-150	-82	-220	-1422
581	2949	-651	-88	-82	-220	-1422
586	3126	-1037	-23	-82	-220	-1422
591	3202	-1508	-3	668	-76	4984
596	3145	-1912	-1	668	-76	4984
601	2925	-2109	-80	668	-76	4984
606	2721	-2014	-245	668	-76	4984
611	2331	-1778	-347	668	-76	4984
616	1785	-1600	-319	668	-76	4984
621	903	-1371	-86	668	-76	4984
626	-368	-371	407	-746	2140	1079
631	-2089	1303	1135	-746	2140	1079
636	-4206	3140	1780	-746	2140	1079
641	-5892	3596	1832	-746	2140	1079
646	-7191	2945	1444	-746	2140	1079
651	-7949	2193	743	-746	2140	1079
656	-8151	2102	43	849	-782	-2396
661	-8082	2331	-874	849	-782	-2396
666	-7766	2294	-1763	849	-782	-2396
671	-7138	1971	-2465	849	-782	-2396
676	-6347	1627	-2707	849	-782	-2396
681	-5375	1317	-2580	849	-782	-2396
686	-4422	1138	-2191	321	-2547	-3451
691	-3568	1032	-1716	321	-2547	-3451
696	-2817	963	-1198	321	-2547	-3451
701	-2226	825	-822	321	-2547	-3451
706	-1667	609	-529	321	-2547	-3451
711	-1117	395	-358	321	-2547	-3451
716	-469	329	-298	1160	-347	-2094
721	115	261	-334	1160	-347	-2094
726	618	80	-446	1160	-347	-2094
731	977	-196	-591	1160	-347	-2094
736	1246	-489	-693	1160	-347	-2094
741	1480	-766	-566	1160	-347	-2094
746	1671	-960	-438	483	833	2863
751	1973	-1106	-346	483	833	2863
756	2418	-1187	-280	483	833	2863
761	2816	-1364	-221	483	833	2863
766	2985	-1512	-195	483	833	2863
771	3006	-1424	-164	483	833	2863
776	2834	-1277	-103	483	833	2863
781	2318	-966	-32	699	2141	4685
786	1569	-630	170	699	2141	4685
791	647	-522	417	699	2141	4685
796	-723	-166	762	699	2141	4685
801	-2242	957	1140	699	2141	4685
806	-3914	2465	1254	699	2141	4685
811	-5599	3707	1043	356	239	-1497
816	-7119	4173	465	356	239	-1497
821	-8156	3734	-160	356	239	-1497
826	-8698	3133	-635	356	239	-1497
831	-8656	2734	-951	356	239	-1497
836	-8109	2675	-985	356	239	-1497
841	-7264	2343	-885	512	-480	-3653
846	-6259	1785	-635	512	-480	-3653
851	-5245	1263	-344	512	-480	-3653
856	-4398	943	-119	512	-480	-3653
861	-3560	752	-20	512	-480	-3653
866	-2785	632	-53	512	-480	-3653
871	-1994	481	-241	253	99	-2311
876	-1293	242	-470	253	99	-2311
881	-713	110	-660	253	99	-2311
886	-44	170	-764	253	99	-2311
891	675	191	-768	253	99	-2311
896	1246	40	-724	253	99	-2311
901	1695	-103	-703	49	309	1433
906	2253	-267	-673	49	309	1433
911	2727	-617	-720	49	309	1433
916	3050	-1019	-839	49	309	1433
921	3252	-1306	-1008	49	309	1433
926	3351	-1514	-1079	49	309	1433
931	3276	-1720	-1012	49	309	1433
936	3110	-1828	-820	670	740	5879
941	2821	-1827	-518	670	740	5879
946	2381	-1591	-284	670	740	5879
951	1676	-902	-10	670	740	5879
956	593	76	338	670	740	5879
961	-921	1167	722	670	740	5879
966	-2592	1963	1045	539	1744	2185
971	-3961	2251	1083	539	1744	2185
976	-5223	2360	625	539	1744	2185
981	-6309	2817	43	539	1744	2185
986	-7102	3442	-662	539	1744	2185
991	-7507	3640	-1364	539	1744	2185
996	-7775	3757	-2010	455	-1580	-3389
1001	-7644	3820	-2421	455	-1580	-3389
1006	-7281	4009	-2310	455	-1580	-3389
1011	-6584	3737	-1915	455	-1580	-3389
1016	-5871	2938	-1559	455	-1580	-3389
1021	-5069	2032	-1175	455	-1580	-3389
1026	-4341	1534	-828	-146	-916	-3851
1031	-3678	1335	-614	-146	-916	-3851
1036	-3148	1218	-530	-146	-916	-3851
1041	-2611	1044	-498	-146	-916	-3851
1046	-2119	814	-548	-146	-916	-3851
1051	-1662	547	-623	-146	-916	-3851
1056	-1244	319	-747	-94	-391	-2676
1061	-872	147	-864	-94	-391	-2676
1066	-461	-25	-964	-94	-391	-2676
1071	-37	-178	-1018	-94	-391	-2676
1076	430	-330	-994	-94	-391	-2676
1081	805	-430	-973	-94	-391	-2676
1086	1239	-530	-932	-94	-391	-2676
1091	1643	-563	-914	309	-491	1014
1096	1975	-588	-940	309	-491	1014
1101	2334	-619	-1127	309	-491	1014
1106	2580	-825	-1249	309	-491	1014
1111	2720	-1244	-1187	309	-491	1014
1116	2609	-1654	-870	309	-491	1014
1121	2440	-1647	-597	429	-93	4435
1126	2253	-1387	-307	429	-93	4435
1131	1920	-1136	-67	429	-93	4435
1136	1409	-1016	-23	429	-93	4435
1141	757	-911	61	429	-93	4435
1146	-82	-858	321	429	-93	4435
1151	-1054	-662	584	309	674	1600
1156	-2239	59	905	309	674	1600
1161	-3568	1121	893	309	674	1600
1166	-5167	2454	237	309	674	1600
1171	-6634	3823	-626	309	674	1600
1176	-7839	4770	-1691	309	674	1600
1181	-8551	4635	-2273	718	-1116	-3767
1186	-8725	3806	-2030	718	-1116	-3767
1191	-8365	3142	-1217	718	-1116	-3767
1196	-7682	2833	-478	718	-1116	-3767
1201	-6699	2396	129	718	-1116	-3767
1206	-5608	1801	408	718	-1116	-3767
1211	-4576	1229	450	-621	-849	-3130
1216	-3728	881	424	-621	-849	-3130
1221	-2892	756	264	-621	-849	-3130
1226	-2137	744	121	-621	-849	-3130
1231	-1454	642	-13	-621	-849	-3130
1236	-879	396	-123	-621	-849	-3130
1241	-485	169	-233	-621	-849	-3130
1246	-81	71	-326	25	-75	-1524
1251	401	125	-400	25	-75	-1524
1256	977	174	-377	25	-75	-1524
1261	1474	94	-322	25	-75	-1524
1266	1923	-212	-305	25	-75	-1524
1271	2249	-638	-313	25	-75	-1524
1276	2506	-1046	-308	-113	305	3689
1281	2642	-1333	-320	-113	305	3689
1286	2762	-1548	-327	-113	305	3689
1291	2758	-1838	-361	-113	305	3689
1296	2654	-1907	-273	-113	305	3689
1301	2499	-1712	-72	-113	305	3689
1306	2266	-1450	49	-380	2309	5516
1311	1852	-1113	155	-380	2309	5516
1316	1242	-653	412	-380	2309	5516
1321	303	-12	666	-380	2309	5516
1326	-1029	807	947	-380	2309	5516
1331	-2409	1553	1215	-380	2309	5516
1336	-4074	2301	991	25	-748	-281
1341	-5570	3066	20	25	-748	-281
1346	-6724	3749	-1520	25	-748	-281
1351	-7680	4174	-2940	25	-748	-281
1356	-8154	4383	-3605	25	-748	-281
1361	-8247	4271	-3340	25	-748	-281
1366	-7944	3823	-2259	251	139	-3564
1371	-7250	3149	-1187	251	139	-3564
1376	-6411	2470	-429	251	139	-3564
1381	-5535	1856	-28	251	139	-3564
1386	-4687	1505	-26	251	139	-3564
1391	-3995	1425	-140	251	139	-3564
1396	-3329	1450	-256	251	139	-3564
1401	-2714	1373	-317	232	-414	-3417
1406	-2070	1070	-431	232	-414	-3417
1411	-1546	724	-474	232	-414	-3417
1416	-1039	470	-503	232	-414	-3417
1421	-533	347	-529	232	-414	-3417
1426	30	92	-522	232	-414	-3417
1431	447	-282	-450	-62	-83	-638
1436	766	-621	-351	-62	-83	-638
1441	1001	-853	-220	-62	-83	-638
1446	1223	-957	-158	-62	-83	-638
1451	1486	-1061	-164	-62	-83	-638
1456	1705	-1169	-217	-62	-83	-638
1461	1909	-1166	-248	-664	252	2548
1466	1977	-1087	-227	-664	252	2548
1471	1973	-1110	-216	-664	252	2548
1476	1915	-1209	-181	-664	252	2548
1481	1878	-1309	-150	-664	252	2548
1486	1805	-1226	-162	-664	252	2548
1491	1737	-1046	-222	-562	161	5253
1496	1610	-718	-277	-562	161	5253
1501	1373	-358	-375	-562	161	5253
1506	986	-326	-434	-562	161	5253
1511	511	-481	-466	-562	161	5253
1516	-229	-582	-183	-562	161	5253
1521	-1246	17	190	-229	1445	2056
1526	-2294	978	470	-229	1445	2056
1531	-3528	2140	370	-229	1445	2056
1536	-4618	2877	-224	-229	1445	2056
1541	-5784	3245	-1150	-229	1445	2056
1546	-6855	3440	-1965	-229	1445	2056
1551	-7549	3775	-2742	-229	1445	2056
1556	-7773	3894	-3278	858	-1728	-2496
1561	-7711	3634	-3348	858	-1728	-2496
1566	-7282	3047	-2995	858	-1728	-2496
1571	-6588	2537	-2357	858	-1728	-2496
1576	-5791	2145	-1632	858	-1728	-2496
1581	-5019	1757	-1073	858	-1728	-2496
1586	-4306	1376	-620	-33	-1413	-3561
1591	-3655	1202	-370	-33	-1413	-3561
1596	-3069	1243	-212	-33	-1413	-3561
1601	-2566	1243	-188	-33	-1413	-3561
1606	-1990	1095	-205	-33	-1413	-3561
1611	-1436	844	-301	-33	-1413	-3561
1616	-905	589	-426	175	-1422	-2516
1621	-408	367	-558	175	-1422	-2516
1626	57	270	-648	175	-1422	-2516
1631	535	130	-597	175	-1422	-2516
1636	923	-49	-561	175	-1422	-2516
1641	1315	-252	-457	175	-1422	-2516
1646	1643	-497	-329	956	-879	-518
1651	1975	-772	-253	956	-879	-518
1656	2291	-932	-171	956	-879	-518
1661	2647	-861	-175	956	-879	-518
1666	3008	-810	-283	956	-879	-518
1671	3224	-1038	-279	956	-879	-518
1676	3183	-1628	77	-1144	2065	5404
1681	2898	-2256	597	-1144	2065	5404
1686	2708	-2337	1032	-1144	2065	5404
1691	2103	-2621	1380	-1144	2065	5404
1696	1458	-1881	1132	-1144	2065	5404
1701	601	-133	505	-1144	2065	5404
1706	-775	1428	-171	-1144	2065	5404
1711	-2647	2352	-691	292	1535	1660
1716	-4297	2910	-773	292	1535	1660
1721	-5956	3487	-844	292	1535	1660
1726	-7291	3566	-984	292	1535	1660
1731	-7853	3447	-1618	292	1535	1660
1736	-8080	3228	-2422	292	1535	1660
1741	-7951	3020	-2889	1443	-1457	-1659
1746	-7511	2706	-2552	1443	-1457	-1659
1751	-6872	2354	-1786	1443	-1457	-1659
1756	-6055	2038	-861	1443	-1457	-1659
1761	-5292	1643	-168	1443	-1457	-1659
1766	-4557	1137	381	1443	-1457	-1659
1771	-4071	812	613	-968	-789	-1957
1776	-3723	794	531	-968	-789	-1957
1781	-3462	886	267	-968	-789	-1957
1786	-3146	981	6	-968	-789	-1957
1791	-2787	1024	-170	-968	-789	-1957
1796	-2394	1014	-215	-968	-789	-1957
1801	-1995	981	-218	-274	-717	-2941
1806	-1628	943	-273	-274	-717	-2941
1811	-1220	844	-338	-274	-717	-2941
1816	-778	710	-450	-274	-717	-2941
1821	-261	558	-647	-274	-717	-2941
1826	283	444	-756	-274	-717	-2941
1831	934	127	-656	-1320	34	208
1836	1452	-332	-403	-1320	34	208
1841	1964	-806	-186	-1320	34	208
1846	2478	-1149	-1	-1320	34	208
1851	2814	-1541	144	-1320	34	208
1856	2888	-2069	178	-1320	34	208
1861	2862	-2362	142	-1320	34	208
1866	2749	-2280	88	659	1590	5839
1871	2467	-2105	43	659	1590	5839
1876	2088	-1796	13	659	1590	5839
1881	1733	-1324	-87	659	1590	5839
1886	1281	-792	-352	659	1590	5839
1891	467	158	-757	659	1590	5839
1896	-519	1438	-1121	-309	1870	2299
1901	-1839	2688	-1272	-309	1870	2299
1906	-3294	3350	-802	-309	1870	2299
1911	-4859	3398	57	-309	1870	2299
1916	-6129	3306	542	-309	1870	2299
1921	-6969	3330	326	-309	1870	2299
1926	-7312	3391	-373	670	-857	-2254
1931	-7215	3346	-1258	670	-857	-2254
1936	-6925	3053	-1915	670	-857	-2254
1941	-6584	2707	-2073	670	-857	-2254
1946	-6041	2392	-1839	670	-857	-2254
1951	-5279	1811	-1346	670	-857	-2254
1956	-4739	1235	-810	288	-1544	-2550
1961	-4330	941	-417	288	-1544	-2550
1966	-3840	829	-204	288	-1544	-2550
1971	-3453	869	-114	288	-1544	-2550
1976	-3047	973	-185	288	-1544	-2550
1981	-2577	1006	-194	288	-1544	-2550
1986	-2173	966	-156	94	-527	-2748
1991	-1755	839	-7	94	-527	-2748
1996	-1362	625	121	94	-527	-2748
2001	-992	398	168	94	-527	-2748
2006	-604	243	143	94	-527	-2748
2011	-135	88	33	94	-527	-2748
2016	350	-67	-153	94	-527	-2748
2021	779	-227	-323	-98	-38	-73
2026	1171	-423	-365	-98	-38	-73
2031	1449	-670	-275	-98	-38	-73
2036	1646	-998	-126	-98	-38	-73
2041	1776	-1281	72	-98	-38	-73
2046	1968	-1480	224	-98	-38	-73
2051	2087	-1605	178	-263	241	4430
2056	2024	-1687	38	-263	241	4430
2061	1838	-1600	-45	-263	241	4430
2066	1519	-1317	-170	-263	241	4430
2071	1124	-778	-118	-263	241	4430
2076	607	-152	30	-263	241	4430
2081	-103	548	106	-320	436	2371
2086	-1030	1090	77	-320	436	2371
2091	-2182	1509	-88	-320	436	2371
2096	-3472	2022	-282	-320	436	2371
2101	-4565	2623	-387	-320	436	2371
2106	-5513	3243	-394	-320	436	2371
2111	-6189	3441	-321	799	-289	-1267
2116	-6594	3192	-444	799	-289	-1267
2121	-6567	2752	-519	799	-289	-1267
2126	-6357	2238	-523	799	-289	-1267
2131	-5987	1843	-378	799	-289	-1267
2136	-5435	1482	-161	799	-289	-1267
2141	-4939	1128	89	-199	-1051	-2572
2146	-4529	878	246	-199	-1051	-2572
2151	-4207	769	306	-199	-1051	-2572
2156	-3891	798	281	-199	-1051	-2572
2161	-3449	836	187	-199	-1051	-2572
2166	-3086	780	167	-199	-1051	-2572
2171	-2751	699	168	-199	-1051	-2572
2176	-2367	614	157	-319	-351	-2696
2181	-1968	520	149	-319	-351	-2696
2186	-1616	424	114	-319	-351	-2696
2191	-1315	329	91	-319	-351	-2696
2196	-992	184	62	-319	-351	-2696
2201	-693	5	3	-319	-351	-2696
2206	-349	-139	-82	-303	-222	-1287
2211	-95	-221	-79	-303	-222	-1287
2216	203	-383	-101	-303	-222	-1287
2221	442	-589	-176	-303	-222	-1287
2226	625	-782	-232	-303	-222	-1287
2231	753	-870	-271	-303	-222	-1287
2236	878	-910	-297	85	370	2173
2241	1037	-896	-209	85	370	2173
2246	1164	-1013	-123	85	370	2173
2251	1197	-1228	-71	85	370	2173
2256	1179	-1397	-55	85	370	2173
2261	1155	-1405	-40	85	370	2173
2266	1059	-1215	-39	-475	1727	4804
2271	930	-948	39	-475	1727	4804
2276	796	-817	235	-475	1727	4804
2281	485	-722	403	-475	1727	4804
2286	32	-365	509	-475	1727	4804
2291	-570	199	533	-475	1727	4804
2296	-1324	738	584	-163	1219	1421
2301	-2210	1484	472	-163	1219	1421
2306	-3196	2363	-189	-163	1219	1421
2311	-4152	2779	-1116	-163	1219	1421
2316	-5278	3425	-1797	-163	1219	1421
2321	-6123	4110	-2203	-163	1219	1421
2326	-6523	4293	-2463	-163	1219	1421
2331	-6550	3689	-2405	926	-1315	-1712
2336	-6304	2753	-2080	926	-1315	-1712
2341	-5820	1975	-1596	926	-1315	-1712
2346	-5332	1593	-1164	926	-1315	-1712
2351	-4875	1281	-741	926	-1315	-1712
2356	-4587	1148	-476	926	-1315	-1712
2361	-4252	1199	-279	919	-1102	-2906
2366	-3926	1299	-157	919	-1102	-2906
2371	-3604	1351	-109	919	-1102	-2906
2376	-3155	1315	-103	919	-1102	-2906
2381	-2656	1159	-88	919	-1102	-2906
2386	-2211	928	-55	919	-1102	-2906
2391	-1877	680	-54	539	-1015	-2761
2396	-1525	505	-35	539	-1015	-2761
2401	-1194	365	-45	539	-1015	-2761
2406	-899	255	-48	539	-1015	-2761
2411	-640	158	-21	539	-1015	-2761
2416	-386	12	-7	539	-1015	-2761
2421	-148	-145	11	-76	-347	-1022
2426	83	-212	77	-76	-347	-1022
2431	287	-316	170	-76	-347	-1022
2436	481	-457	223	-76	-347	-1022
2441	639	-673	296	-76	-347	-1022
2446	768	-917	387	-76	-347	-1022
2451	897	-1128	449	-294	282	2324
2456	976	-1226	402	-294	282	2324
2461	1017	-1185	312	-294	282	2324
2466	1007	-1038	203	-294	282	2324
2471	957	-857	90	-294	282	2324
2476	853	-715	98	-294	282	2324
2481	747	-708	112	-294	282	2324
2486	541	-709	194	-1521	1709	4341
2491	259	-576	369	-1521	1709	4341
2496	-133	-294	465	-1521	1709	4341
2501	-663	90	444	-1521	1709	4341
2506	-1219	267	330	-1521	1709	4341
2511	-1916	415	63	-1521	1709	4341
2516	-2596	1093	-396	173	-289	730
2521	-3354	1965	-910	173	-289	730
2526	-4197	2704	-1440	173	-289	730
2531	-5056	3229	-1795	173	-289	730
2536	-5659	3555	-1842	173	-289	730
2541	-5859	3422	-1660	173	-289	730
2546	-5762	2790	-1274	58	-720	-1441
2551	-5533	2133	-880	58	-720	-1441
2556	-5159	1641	-491	58	-720	-1441
2561	-4683	1296	-138	58	-720	-1441
2566	-4286	996	86	58	-720	-1441
2571	-3988	879	225	58	-720	-1441
2576	-3676	892	271	-325	-481	-2518
2581	-3417	942	279	-325	-481	-2518
2586	-3118	967	228	-325	-481	-2518
2591	-2788	892	182	-325	-481	-2518
2596	-2454	763	122	-325	-481	-2518
2601	-2095	587	78	-325	-481	-2518
2606	-1776	413	7	59	-491	-2299
2611	-1474	286	-60	59	-491	-2299
2616	-1233	210	-108	59	-491	-2299
2621	-991	137	-126	59	-491	-2299
2626	-779	76	-134	59	-491	-2299
2631	-574	-37	-155	59	-491	-2299
2636	-367	-188	-139	59	-491	-2299
2641	-181	-366	-128	-741	-323	-150
2646	-24	-476	-95	-741	-323	-150
2651	184	-628	41	-741	-323	-150
2656	314	-878	162	-741	-323	-150
2661	398	-952	237	-741	-323	-150
2666	572	-1069	276	-741	-323	-150
2671	578	-1119	293	350	529	3173
2676	578	-1086	206	350	529	3173
2681	615	-1087	60	350	529	3173
2686	650	-1068	-86	350	529	3173
2691	678	-1137	-97	350	529	3173
2696	572	-825	20	350	529	3173
2701	482	-226	164	562	82	4005
2706	239	221	134	562	82	4005
2711	-196	566	-106	562	82	4005
2716	-818	929	-342	562	82	4005
2721	-1534	1241	-329	562	82	4005
2726	-2452	1460	-204	562	82	4005
2731	-3389	1873	67	296	1074	-199
2736	-4504	2922	289	296	1074	-199
2741	-5345	3914	171	296	1074	-199
2746	-5716	4039	-453	296	1074	-199
2751	-5791	3354	-1087	296	1074	-199
2756	-5568	2323	-1517	296	1074	-199
2761	-5204	1606	-1487	371	-487	-1743
2766	-4882	1258	-1134	371	-487	-1743
2771	-4614	1141	-692	371	-487	-1743
2776	-4438	1115	-375	371	-487	-1743
2781	-4316	1168	-146	371	-487	-1743
2786	-4077	1255	-30	371	-487	-1743
2791	-3808	1276	64	371	-487	-1743
2796	-3496	1239	122	-138	-246	-2378
2801	-3141	1140	161	-138	-246	-2378
2806	-2766	1016	132	-138	-246	-2378
2811	-2361	885	100	-138	-246	-2378
2816	-1966	729	24	-138	-246	-2378
2821	-1672	547	-69	-138	-246	-2378
2826	-1422	380	-177	-206	-130	-1437
2831	-1202	280	-273	-206	-130	-1437
2836	-1014	227	-341	-206	-130	-1437
2841	-806	219	-317	-206	-130	-1437
2846	-589	223	-276	-206	-130	-1437
2851	-230	183	-187	-206	-130	-1437
2856	178	-40	-166	-144	-206	856
2861	509	-229	-247	-144	-206	856
2866	768	-450	-250	-144	-206	856
2871	1001	-910	-257	-144	-206	856
2876	1109	-1436	-188	-144	-206	856
2881	1072	-1896	-45	-144	-206	856
2886	1037	-2144	132	-61	714	3682
2891	945	-2046	306	-61	714	3682
2896	813	-1641	506	-61	714	3682
2901	539	-1043	762	-61	714	3682
2906	90	-575	993	-61	714	3682
2911	-478	-118	1124	-61	714	3682
2916	-1329	537	1186	-114	540	189
2921	-2370	1303	934	-114	540	189
2926	-3523	2110	257	-114	540	189
2931	-4562	2942	-565	-114	540	189
2936	-5192	3478	-1199	-114	540	189
2941	-5582	3681	-1752	-114	540	189
2946	-5649	3502	-1981	-114	540	189
2951	-5434	3054	-1772	730	-300	-2176
2956	-5086	2489	-1400	730	-300	-2176
2961	-4596	1807	-1012	730	-300	-2176
2966	-4125	1288	-648	730	-300	-2176
2971	-3747	934	-396	730	-300	-2176
2976	-3442	785	-297	730	-300	-2176
2981	-3156	713	-236	-163	-925	-2444
2986	-2883	628	-195	-163	-925	-2444
2991	-2626	587	-193	-163	-925	-2444
2996	-2335	532	-190	-163	-925	-2444
3001	-2104	461	-167	-163	-925	-2444
3006	-1864	359	-109	-163	-925	-2444
3011	-1640	244	-80	-329	-638	-1746
3016	-1416	122	-16	-329	-638	-1746
3021	-1227	6	36	-329	-638	-1746
3026	-1055	-80	73	-329	-638	-1746
3031	-859	-198	97	-329	-638	-1746
3036	-674	-346	88	-329	-638	-1746
3041	-498	-489	107	-618	-82	77
3046	-384	-647	129	-618	-82	77
3051	-269	-783	195	-618	-82	77
3056	-123	-882	267	-618	-82	77
3061	-32	-924	306	-618	-82	77
3066	77	-947	360	-618	-82	77
3071	200	-943	374	-945	656	2325
3076	391	-1052	421	-945	656	2325
3081	421	-1245	442	-945	656	2325
3086	407	-1369	388	-945	656	2325
3091	429	-1362	294	-945	656	2325
3096	402	-1269	144	-945	656	2325
3101	377	-1262	63	-945	656	2325
3106	213	-1396	110	-1024	2037	3553
3111	-288	-1186	94	-1024	2037	3553
3116	-869	-318	91	-1024	2037	3553
3121	-1608	915	94	-1024	2037	3553
3126	-2466	2030	-75	-1024	2037	3553
3131	-3433	3036	-610	-1024	2037	3553
3136	-4236	3582	-1258	1186	-140	-1179
3141	-5070	3788	-2042	1186	-140	-1179
3146	-5733	3887	-2613	1186	-140	-1179
3151	-5947	3760	-2689	1186	-140	-1179
3156	-5722	3248	-2402	1186	-140	-1179
3161	-5351	2481	-1960	1186	-140	-1179
3166	-4915	1596	-1434	878	-1439	-2543
3171	-4479	994	-993	878	-1439	-2543
3176	-4077	724	-684	878	-1439	-2543
3181	-3756	656	-516	878	-1439	-2543
3186	-3341	674	-396	878	-1439	-2543
3191	-2927	574	-318	878	-1439	-2543
3196	-2524	449	-208	-563	-1697	-2206
3201	-2092	297	-47	-563	-1697	-2206
3206	-1703	151	71	-563	-1697	-2206
3211	-1335	-24	214	-563	-1697	-2206
3216	-1039	-195	339	-563	-1697	-2206
3221	-820	-298	445	-563	-1697	-2206
3226	-654	-354	505	54	425	-776
3231	-476	-446	542	54	425	-776
3236	-311	-583	587	54	425	-776
3241	-175	-658	566	54	425	-776
3246	-44	-769	493	54	425	-776
3251	34	-861	366	54	425	-776
3256	152	-929	244	54	425	-776
3261	270	-964	154	-650	137	1401
3266	372	-1003	53	-650	137	1401
3271	430	-1073	-43	-650	137	1401
3276	480	-1207	-99	-650	137	1401
3281	506	-1366	-148	-650	137	1401
3286	488	-1444	-156	-650	137	1401
3291	420	-1318	-180	-745	315	4172
3296	347	-1176	-188	-745	315	4172
3301	157	-998	-125	-745	315	4172
3306	-138	-752	91	-745	315	4172
3311	-595	-209	376	-745	315	4172
3316	-1077	445	538	-745	315	4172
3321	-1698	1131	563	205	1478	2245
3326	-2489	1640	396	205	1478	2245
3331	-3244	2064	22	205	1478	2245
3336	-3798	2332	-461	205	1478	2245
3341	-4309	2744	-869	205	1478	2245
3346	-4840	3431	-1170	205	1478	2245
3351	-5127	3865	-1319	691	-250	-1621
3356	-5173	3631	-1282	691	-250	-1621
3361	-5093	2916	-1111	691	-250	-1621
3366	-4857	2030	-915	691	-250	-1621
3371	-4514	1547	-670	691	-250	-1621
3376	-4116	1298	-556	691	-250	-1621
3381	-3800	1145	-420	-142	-1176	-2721
3386	-3516	1043	-307	-142	-1176	-2721
3391	-3222	913	-241	-142	-1176	-2721
3396	-2886	762	-210	-142	-1176	-2721
3401	-2564	631	-160	-142	-1176	-2721
3406	-2260	515	-131	-142	-1176	-2721
3411	-1929	376	-129	-142	-1176	-2721
3416	-1646	239	-145	71	-956	-2449
3421	-1366	113	-149	71	-956	-2449
3426	-1084	-7	-169	71	-956	-2449
3431	-848	-130	-185	71	-956	-2449
3436	-584	-320	-180	71	-956	-2449
3441	-326	-538	-215	71	-956	-2449
3446	-18	-772	-150	-1072	-772	1096
3451	324	-967	-98	-1072	-772	1096
3456	703	-1261	53	-1072	-772	1096
3461	1008	-1830	271	-1072	-772	1096
3466	1021	-2341	367	-1072	-772	1096
3471	1076	-2410	346	-1072	-772	1096
3476	1125	-2067	139	1318	18	4890
3481	1125	-1502	-216	1318	18	4890
3486	944	-1176	-455	1318	18	4890
3491	614	-995	-432	1318	18	4890
3496	74	-600	-144	1318	18	4890
3501	-568	140	193	1318	18	4890
3506	-1493	1443	550	184	1044	1149
3511	-2388	2672	732	184	1044	1149
3516	-3268	3372	653	184	1044	1149
3521	-4026	3536	481	184	1044	1149
3526	-4676	3302	263	184	1044	1149
3531	-5080	2957	120	184	1044	1149
3536	-5283	2769	138	329	1843	-1454
3541	-5277	2684	206	329	1843	-1454
3546	-5061	2539	269	329	1843	-1454
3551	-4692	2171	255	329	1843	-1454
3556	-4301	1691	181	329	1843	-1454
3561	-3944	1312	28	329	1843	-1454
3566	-3649	1117	-172	329	1843	-1454
3571	-3301	967	-439	520	-366	-2285
3576	-2998	829	-661	520	-366	-2285
3581	-2656	720	-814	520	-366	-2285
3586	-2372	698	-888	520	-366	-2285
3591	-2097	694	-864	520	-366	-2285
3596	-1783	614	-788	520	-366	-2285
3601	-1510	481	-662	479	-1373	-1965
3606	-1265	309	-508	479	-1373	-1965
3611	-1064	137	-382	479	-1373	-1965
3616	-853	-95	-225	479	-1373	-1965
3621	-707	-248	-97	479	-1373	-1965
3626	-575	-384	35	479	-1373	-1965
3631	-447	-495	108	340	72	-477
3636	-405	-589	159	340	72	-477
3641	-352	-712	256	340	72	-477
3646	-288	-765	350	340	72	-477
3651	-132	-821	463	340	72	-477
3656	-32	-886	515	340	72	-477
3661	116	-989	520	-37	1050	3310
3666	221	-1078	480	-37	1050	3310
3671	280	-1154	339	-37	1050	3310
3676	311	-1241	243	-37	1050	3310
3681	266	-1326	248	-37	1050	3310
3686	-28	-1301	285	-37	1050	3310
3691	-424	-1117	295	-788	308	1590
3696	-1016	-427	240	-788	308	1590
3701	-1689	415	125	-788	308	1590
3706	-2591	1562	-247	-788	308	1590
3711	-3519	2518	-780	-788	308	1590
3716	-4313	3038	-1351	-788	308	1590
3721	-4817	3140	-1687	-788	308	1590
3726	-5065	2874	-1726	440	107	-1706
3731	-5270	2484	-1559	440	107	-1706
3736	-5275	2225	-1152	440	107	-1706
3741	-5054	2027	-636	440	107	-1706
3746	-4794	1844	-342	440	107	-1706
3751	-4403	1573	-165	440	107	-1706
3756	-3989	1256	-159	62	-481	-2929
3761	-3540	1007	-275	62	-481	-2929
3766	-3104	800	-399	62	-481	-2929
3771	-2731	638	-485	62	-481	-2929
3776	-2360	499	-497	62	-481	-2929
3781	-2001	366	-487	62	-481	-2929
3786	-1660	195	-417	-216	-625	-1921
3791	-1375	28	-332	-216	-625	-1921
3796	-1103	-135	-230	-216	-625	-1921
3801	-863	-260	-101	-216	-625	-1921
3806	-623	-367	4	-216	-625	-1921
3811	-396	-511	74	-216	-625	-1921
3816	-217	-620	102	-700	152	288
3821	-45	-802	104	-700	152	288
3826	140	-982	69	-700	152	288
3831	277	-1142	10	-700	152	288
3836	393	-1223	-70	-700	152	288
3841	469	-1304	-173	-700	152	288
3846	540	-1318	-162	-1566	-818	3595
3851	627	-1416	-75	-1566	-818	3595
3856	665	-1516	-92	-1566	-818	3595
3861	633	-1475	-56	-1566	-818	3595
3866	522	-1273	129	-1566	-818	3595
3871	215	-1018	413	-1566	-818	3595
3876	-221	-782	717	-1566	-818	3595
3881	-704	-510	850	90	2098	2155
3886	-1396	76	710	90	2098	2155
3891	-2366	1241	326	90	2098	2155
3896	-3319	2614	-168	90	2098	2155
3901	-4139	3620	-893	90	2098	2155
3906	-4726	3928	-1577	90	2098	2155
3911	-5066	3543	-2097	641	-768	-1286
3916	-5192	2853	-2203	641	-768	-1286
3921	-5140	2219	-1924	641	-768	-1286
3926	-4938	1811	-1470	641	-768	-1286
3931	-4642	1523	-1020	641	-768	-1286
3936	-4276	1245	-687	641	-768	-1286
3941	-3929	988	-502	704	-1426	-2031
3946	-3587	785	-422	704	-1426	-2031
3951	-3322	659	-366	704	-1426	-2031
3956	-3003	610	-368	704	-1426	-2031
3961	-2658	549	-377	704	-1426	-2031
3966	-2329	461	-345	704	-1426	-2031
3971	-2079	406	-278	441	-982	-1441
3976	-1809	295	-194	441	-982	-1441
3981	-1557	147	-101	441	-982	-1441
3986	-1311	-37	29	441	-982	-1441
3991	-1176	-211	178	441	-982	-1441
3996	-1104	-315	297	441	-982	-1441
4001	-1024	-429	368	-894	-314	-76
4006	-923	-499	377	-894	-314	-76
4011	-788	-505	289	-894	-314	-76
4016	-638	-518	197	-894	-314	-76
4021	-573	-559	66	-894	-314	-76
4026	-454	-588	19	-894	-314	-76
4031	-342	-591	-20	-894	-314	-76
4036	-222	-628	-4	-591	650	1065
4041	-106	-672	45	-591	650	1065
4046	18	-825	134	-591	650	1065
4051	35	-1027	190	-591	650	1065
4056	46	-1206	247	-591	650	1065
4061	-1	-1299	209	-591	650	1065
4066	-63	-1249	82	523	1550	3668
4071	-126	-1104	-19	523	1550	3668
4076	-302	-847	-98	523	1550	3668
4081	-567	-525	-154	523	1550	3668
4086	-895	-113	-143	523	1550	3668
4091	-1338	405	-107	523	1550	3668
4096	-1845	964	-177	377	-5	1752
4101	-2369	1442	-367	377	-5	1752
4106	-2924	1774	-723	377	-5	1752
4111	-3411	1998	-1135	377	-5	1752
4116	-3935	2218	-1386	377	-5	1752
4121	-4451	2561	-1287	377	-5	1752
4126	-4843	3015	-867	-277	-189	-2170
4131	-5067	3267	-421	-277	-189	-2170
4136	-5063	3109	-129	-277	-189	-2170
4141	-4877	2539	-201	-277	-189	-2170
4146	-4570	1864	-407	-277	-189	-2170
4151	-4251	1418	-501	-277	-189	-2170
4156	-3911	1121	-473	248	-471	-3124
4161	-3579	972	-420	248	-471	-3124
4166	-3252	928	-385	248	-471	-3124
4171	-2871	886	-369	248	-471	-3124
4176	-2530	791	-420	248	-471	-3124
4181	-2158	614	-499	248	-471	-3124
4186	-1800	406	-551	248	-471	-3124
4191	-1460	208	-590	497	-1564	-2047
4196	-1148	24	-559	497	-1564	-2047
4201	-910	-91	-528	497	-1564	-2047
4206	-672	-250	-375	497	-1564	-2047
4211	-496	-399	-200	497	-1564	-2047
4216	-358	-581	33	497	-1564	-2047
4221	-299	-694	221	-147	-724	184
4226	-203	-759	387	-147	-724	184
4231	-90	-797	471	-147	-724	184
4236	25	-806	554	-147	-724	184
4241	130	-849	615	-147	-724	184
4246	204	-934	675	-147	-724	184
4251	244	-1033	719	-2233	-513	3522
4256	269	-1040	706	-2233	-513	3522
4261	349	-1064	729	-2233	-513	3522
4266	360	-1150	783	-2233	-513	3522
4271	331	-1185	765	-2233	-513	3522
4276	189	-990	547	-2233	-513	3522
4281	-50	-552	311	-571	-1183	3838
4286	-378	40	106	-571	-1183	3838
4291	-620	531	54	-571	-1183	3838
4296	-949	916	23	-571	-1183	3838
4301	-1255	1071	65	-571	-1183	3838
4306	-1676	1223	144	-571	-1183	3838
4311	-2094	1437	282	999	883	380
4316	-2679	1953	423	999	883	380
4321	-3296	2565	538	999	883	380
4326	-3946	3249	602	999	883	380
4331	-4535	3854	663	999	883	380
4336	-4867	4013	630	999	883	380
4341	-5050	3599	443	999	883	380
4346	-4975	2807	241	625	194	-1983
4351	-4750	2078	183	625	194	-1983
4356	-4495	1597	181	625	194	-1983
4361	-4229	1296	200	625	194	-1983
4366	-3965	1164	242	625	194	-1983
4371	-3701	1070	236	625	194	-1983
4376	-3468	997	227	-56	-193	-3167
4381	-3230	946	198	-56	-193	-3167
4386	-2885	889	127	-56	-193	-3167
4391	-2526	774	42	-56	-193	-3167
4396	-2186	560	-67	-56	-193	-3167
4401	-1888	369	-136	-56	-193	-3167
4406	-1588	199	-213	-1086	-1059	-2027
4411	-1283	70	-230	-1086	-1059	-2027
4416	-1036	-43	-193	-1086	-1059	-2027
4421	-789	-223	-44	-1086	-1059	-2027
4426	-563	-458	138	-1086	-1059	-2027
4431	-485	-463	283	-1086	-1059	-2027
4436	-327	-300	383	-2615	-1122	-462
4441	-52	-248	443	-2615	-1122	-462
4446	311	-461	581	-2615	-1122	-462
4451	606	-1020	756	-2615	-1122	-462
4456	679	-1640	917	-2615	-1122	-462
4461	639	-1940	970	-2615	-1122	-462
4466	579	-1781	909	1286	2220	4581
4471	610	-1477	731	1286	2220	4581
4476	520	-1310	515	1286	2220	4581
4481	278	-1343	260	1286	2220	4581
4486	67	-1311	-29	1286	2220	4581
4491	-139	-1086	-181	1286	2220	4581
4496	-502	-452	-284	1286	2220	4581
4501	-1001	551	-349	464	1154	3088
4506	-1529	1511	-406	464	1154	3088
4511	-2026	2130	-553	464	1154	3088
4516	-2461	2270	-843	464	1154	3088
4521	-2930	2049	-1464	464	1154	3088
4526	-3434	2154	-1878	464	1154	3088
4531	-3866	2570	-1986	902	-236	-956
4536	-4157	2964	-1779	902	-236	-956
4541	-4419	2946	-1187	902	-236	-956
4546	-4593	2577	-482	902	-236	-956
4551	-4601	2114	93	902	-236	-956
4556	-4432	1667	469	902	-236	-956
4561	-4234	1281	611	750	232	-2201
4566	-4043	956	564	750	232	-2201
4571	-3863	833	403	750	232	-2201
4576	-3631	855	149	750	232	-2201
4581	-3400	868	-29	750	232	-2201
4586	-3116	766	-189	750	232	-2201
4591	-2793	571	-299	104	-1317	-2538
4596	-2456	357	-352	104	-1317	-2538
4601	-2090	160	-356	104	-1317	-2538
4606	-1776	26	-321	104	-1317	-2538
4611	-1511	22	-281	104	-1317	-2538
4616	-1257	-30	-114	104	-1317	-2538
4621	-984	-221	54	-575	439	-71
4626	-746	-526	291	-575	439	-71
4631	-622	-817	494	-575	439	-71
4636	-451	-871	582	-575	439	-71
4641	-196	-804	531	-575	439	-71
4646	30	-857	463	-575	439	-71
4651	117	-907	379	-575	439	-71
4656	194	-765	210	-866	652	2393
4661	276	-670	89	-866	652	2393
4666	345	-747	74	-866	652	2393
4671	380	-912	103	-866	652	2393
4676	339	-840	70	-866	652	2393
4681	324	-616	-36	-866	652	2393
4686	112	-472	-195	-849	-918	2845
4691	-332	-294	-377	-849	-918	2845
4696	-911	197	-575	-849	-918	2845
4701	-1732	968	-719	-849	-918	2845
4706	-2668	2149	-484	-849	-918	2845
4711	-3791	3654	-70	-849	-918	2845
4716	-4594	4465	319	698	747	-1192
4721	-5157	4134	590	698	747	-1192
4726	-5408	3036	388	698	747	-1192
4731	-5267	2124	-48	698	747	-1192
4736	-4946	1661	-516	698	747	-1192
4741	-4669	1383	-799	698	747	-1192
4746	-4356	1108	-894	307	-1315	-2333
4751	-4039	857	-820	307	-1315	-2333
4756	-3704	696	-681	307	-1315	-2333
4761	-3415	598	-510	307	-1315	-2333
4766	-3115	533	-297	307	-1315	-2333
4771	-2790	494	-92	307	-1315	-2333
4776	-2474	443	53	104	-634	-2210
4781	-2138	374	164	104	-634	-2210
4786	-1827	237	212	104	-634	-2210
4791	-1513	73	236	104	-634	-2210
4796	-1208	-104	242	104	-634	-2210
4801	-900	-299	230	104	-634	-2210
4806	-653	-469	252	104	-634	-2210
4811	-374	-717	340	316	1248	75
4816	-185	-964	447	316	1248	75
4821	-34	-1088	470	316	1248	75
4826	106	-1103	366	316	1248	75
4831	230	-1090	237	316	1248	75
4836	391	-1065	101	316	1248	75
4841	534	-1102	-16	-547	321	2598
4846	606	-1187	-118	-547	321	2598
4851	634	-1256	-184	-547	321	2598
4856	619	-1211	-225	-547	321	2598
4861	601	-1050	-249	-547	321	2598
4866	540	-947	-168	-547	321	2598
4871	242	-921	18	80	2220	3960
4876	-180	-675	214	80	2220	3960
4881	-853	-97	412	80	2220	3960
4886	-1672	590	518	80	2220	3960
4891	-2471	1390	315	80	2220	3960
4896	-3219	2020	-315	80	2220	3960
4901	-3903	2732	-982	270	-891	-1135
4906	-4614	3715	-1605	270	-891	-1135
4911	-5107	4101	-1942	270	-891	-1135
4916	-5325	3699	-1973	270	-891	-1135
4921	-5326	2980	-1657	270	-891	-1135
4926	-5169	2249	-1196	270	-891	-1135
4931	-4821	1839	-776	30	-815	-2833
4936	-4394	1594	-426	30	-815	-2833
4941	-4001	1342	-174	30	-815	-2833
4946	-3633	1159	-23	30	-815	-2833
4951	-3253	1000	41	30	-815	-2833
4956	-2883	871	51	30	-815	-2833
4961	-2509	817	16	30	-815	-2833
4966	-2146	747	-45	-88	-513	-2727
4971	-1754	554	-105	-88	-513	-2727
4976	-1374	297	-151	-88	-513	-2727
4981	-988	-6	-108	-88	-513	-2727
4986	-606	-283	-85	-88	-513	-2727
4991	-304	-514	-60	-88	-513	-2727
4996	37	-713	-37	-897	-309	806
5001	283	-911	-34	-897	-309	806
5006	491	-1198	-50	-897	-309	806
5011	667	-1521	-42	-897	-309	806
5016	790	-1758	-51	-897	-309	806
5021	845	-1763	-114	-897	-309	806
5026	864	-1650	-167	234	-145	4314
5031	860	-1510	-188	234	-145	4314
5036	770	-1375	-154	234	-145	4314
5041	609	-1143	-86	234	-145	4314
5046	396	-951	102	234	-145	4314
5051	-29	-806	417	234	-145	4314
5056	-696	-369	762	143	2352	362
5064	-2354	1618	1105	143	2352	362
5066	-2777	2235	1014	143	2352	362
5071	-3833	3741	619	143	2352	362
5076	-4725	4722	-12	143	2352	362
5081	-5256	4647	-791	143	2352	362
5086	-5516	3800	-1584	679	-1220	-1839
5091	-5396	2819	-1998	679	-1220	-1839
5096	-5081	2060	-2038	679	-1220	-1839
5101	-4698	1615	-1757	679	-1220	-1839
5106	-4280	1242	-1265	679	-1220	-1839
5111	-3927	965	-823	679	-1220	-1839
5116	-3607	773	-495	679	-1220	-1839
5121	-3296	682	-265	204	-1192	-2371
5126	-3035	644	-132	204	-1192	-2371
5131	-2728	610	-41	204	-1192	-2371
5136	-2368	527	-4	204	-1192	-2371
5141	-2003	334	39	204	-1192	-2371
5146	-1738	145	82	204	-1192	-2371
5151	-1458	-26	115	-79	-334	-1577
5156	-1211	-125	113	-79	-334	-1577
5161	-957	-190	108	-79	-334	-1577
5166	-717	-304	120	-79	-334	-1577
5171	-532	-416	152	-79	-334	-1577
5176	-352	-569	206	-79	-334	-1577
5181	-191	-695	211	-212	810	551
5186	33	-853	222	-212	810	551
5191	171	-975	213	-212	810	551
5196	350	-1043	147	-212	810	551
5201	540	-1060	75	-212	810	551
5206	651	-1106	11	-212	810	551
5211	691	-1192	-78	-794	336	4067
5216	707	-1282	-133	-794	336	4067
5221	638	-1268	-192	-794	336	4067
5226	508	-1123	-261	-794	336	4067
5231	337	-896	-283	-794	336	4067
5236	74	-775	-282	-794	336	4067
5241	-475	-421	-188	214	911	1458
5246	-1283	427	-40	214	911	1458
5251	-2158	1623	75	214	911	1458
5256	-3039	2761	-4	214	911	1458
5261	-3916	3626	-340	214	911	1458
5266	-4642	4033	-1032	214	911	1458
5271	-5093	3905	-1644	214	911	1458
5276	-5327	3455	-1893	559	-1731	-1604
5281	-5301	2922	-1725	559	-1731	-1604
5286	-5058	2379	-1244	559	-1731	-1604
5291	-4767	1923	-704	559	-1731	-1604
5296	-4414	1579	-221	559	-1731	-1604
5301	-4085	1322	91	559	-1731	-1604
5306	-3812	1166	292	-67	-935	-2519
5311	-3484	1035	437	-67	-935	-2519
5316	-3201	932	479	-67	-935	-2519
5321	-2902	839	502	-67	-935	-2519
5326	-2630	747	443	-67	-935	-2519
5331	-2334	632	361	-67	-935	-2519
5336	-2047	505	275	-192	-244	-2376
5341	-1765	361	217	-192	-244	-2376
5346	-1496	219	176	-192	-244	-2376
5351	-1263	104	137	-192	-244	-2376
5356	-1037	-17	92	-192	-244	-2376
5361	-822	-105	51	-192	-244	-2376
5366	-621	-262	44	-257	25	-919
5371	-459	-390	19	-257	25	-919
5376	-280	-580	-16	-257	25	-919
5381	-123	-753	-54	-257	25	-919
5386	15	-899	-49	-257	25	-919
5391	198	-1002	-21	-257	25	-919
5396	363	-1088	10	-813	-152	2836
5401	509	-1241	30	-813	-152	2836
5406	576	-1406	53	-813	-152	2836
5411	553	-1513	47	-813	-152	2836
5416	557	-1529	51	-813	-152	2836
5421	544	-1513	55	-813	-152	2836
5426	526	-1498	128	-813	-152	2836
5431	382	-1424	236	474	2419	5466
5436	54	-1071	423	474	2419	5466
5441	-319	-561	625	474	2419	5466
5446	-923	118	828	474	2419	5466
5451	-1672	911	875	474	2419	5466
5456	-2407	1970	721	474	2419	5466
5461	-3001	2822	186	91	-277	-547
5466	-3735	3684	-586	91	-277	-547
5471	-4365	4429	-1309	91	-277	-547
5476	-4764	4750	-1958	91	-277	-547
5481	-4833	4592	-2314	91	-277	-547
5486	-4639	3963	-2251	91	-277	-547
5491	-4417	2864	-1740	695	-1049	-2686
5496	-4215	1958	-1112	695	-1049	-2686
5501	-3952	1431	-511	695	-1049	-2686
5506	-3740	1289	-104	695	-1049	-2686
5511	-3519	1271	159	695	-1049	-2686
5516	-3235	1108	302	695	-1049	-2686
5521	-2925	875	297	274	-724	-2582
5526	-2642	584	247	274	-724	-2582
5531	-2398	348	176	274	-724	-2582
5536	-2131	162	132	274	-724	-2582
5541	-1908	30	104	274	-724	-2582
5546	-1690	-52	83	274	-724	-2582
5551	-1515	-94	76	620	137	-1737
5556	-1321	-83	98	620	137	-1737
5561	-1119	-103	120	620	137	-1737
5566	-909	-132	144	620	137	-1737
5571	-678	-170	213	620	137	-1737
5576	-505	-306	254	620	137	-1737
5581	-316	-508	330	620	137	-1737
5586	-162	-757	387	-898	761	1729
5591	-31	-1013	414	-898	761	1729
5596	74	-1225	396	-898	761	1729
5601	155	-1349	329	-898	761	1729
5606	184	-1287	225	-898	761	1729
5611	217	-1064	86	-898	761	1729
5616	240	-825	-43	-1008	1020	4143
5621	133	-668	-89	-1008	1020	4143
5626	-59	-523	3	-1008	1020	4143
5631	-326	-275	153	-1008	1020	4143
5636	-700	22	257	-1008	1020	4143
5641	-1266	533	239	-1008	1020	4143
5646	-1800	1138	89	207	1405	478
5651	-2440	1860	-244	207	1405	478
5656	-3148	2782	-641	207	1405	478
5661	-3727	3596	-1048	207	1405	478
5666	-4158	4063	-1360	207	1405	478
5671	-4510	4128	-1553	207	1405	478
5676	-4575	3629	-1636	734	-785	-1809
5681	-4468	2760	-1663	734	-785	-1809
5686	-4259	1958	-1586	734	-785	-1809
5691	-4054	1476	-1424	734	-785	-1809
5696	-3843	1249	-1230	734	-785	-1809
5701	-3638	1224	-1042	734	-785	-1809
5706	-3424	1253	-894	635	-1928	-3216
5711	-3274	1341	-769	635	-1928	-3216
5716	-3052	1367	-621	635	-1928	-3216
5721	-2749	1183	-553	635	-1928	-3216
5726	-2394	863	-437	635	-1928	-3216
5731	-2070	529	-335	635	-1928	-3216
5736	-1804	272	-218	635	-1928	-3216
5741	-1547	60	-100	270	-1290	-1740
5746	-1329	-87	17	270	-1290	-1740
5751	-1100	-196	99	270	-1290	-1740
5756	-886	-326	209	270	-1290	-1740
5761	-697	-531	341	270	-1290	-1740
5766	-549	-700	459	270	-1290	-1740
5771	-439	-765	542	-813	393	69
5776	-306	-753	601	-813	393	69
5781	-169	-790	635	-813	393	69
5786	-92	-813	594	-813	393	69
5791	-10	-807	517	-813	393	69
5796	135	-840	404	-813	393	69
5801	211	-912	334	-1641	1171	1001
5806	208	-944	316	-1641	1171	1001
5811	182	-836	303	-1641	1171	1001
5816	170	-617	242	-1641	1171	1001
5821	61	-260	116	-1641	1171	1001
5826	73	-129	-59	-1641	1171	1001
5831	-72	-260	-238	670	1038	3734
5836	-530	-388	-388	670	1038	3734
5841	-1173	-256	-609	670	1038	3734
5846	-1857	69	-938	670	1038	3734
5851	-2640	640	-1336	670	1038	3734
5856	-3380	1513	-1611	670	1038	3734
5861	-3993	2416	-1765	552	-1236	-448
5866	-4447	3111	-1737	552	-1236	-448
5871	-4614	3116	-1516	552	-1236	-448
5876	-4725	2446	-1141	552	-1236	-448
5881	-4656	1572	-795	552	-1236	-448
5886	-4466	913	-398	552	-1236	-448
5891	-4342	573	-107	552	-1236	-448
5896	-4171	483	184	-20	-762	-1990
5901	-3972	580	353	-20	-762	-1990
5906	-3771	726	409	-20	-762	-1990
5911	-3531	778	455	-20	-762	-1990
5916	-3263	727	413	-20	-762	-1990
5921	-2952	578	326	-20	-762	-1990
5926	-2610	375	257	-374	-647	-2216
5931	-2307	199	149	-374	-647	-2216
5936	-2042	113	79	-374	-647	-2216
5941	-1738	27	0	-374	-647	-2216
5946	-1455	-84	-54	-374	-647	-2216
5951	-1206	-212	-106	-374	-647	-2216
5956	-1012	-289	-138	-234	-605	-1404
5961	-815	-369	-188	-234	-605	-1404
5966	-672	-421	-217	-234	-605	-1404
5971	-572	-390	-235	-234	-605	-1404
5976	-480	-339	-249	-234	-605	-1404
5981	-372	-309	-264	-234	-605	-1404
5986	-253	-391	-272	-1423	-1300	1256
5991	-122	-631	-270	-1423	-1300	1256
5996	-17	-917	-251	-1423	-1300	1256
6001	24	-1203	-210	-1423	-1300	1256
6006	83	-1367	-134	-1423	-1300	1256
6011	96	-1495	-45	-1423	-1300	1256
6016	6	-1392	0	1324	1727	4471
6021	-45	-1095	49	1324	1727	4471
6026	-93	-867	207	1324	1727	4471
6031	-309	-803	420	1324	1727	4471
6036	-659	-781	632	1324	1727	4471
6041	-942	-808	790	1324	1727	4471
6046	-1224	-865	808	1324	1727	4471
6051	-1504	-680	693	340	1998	2665
6056	-1824	-70	457	340	1998	2665
6061	-2448	1301	109	340	1998	2665
6066	-3115	2848	-536	340	1998	2665
6071	-3833	4188	-1288	340	1998	2665
6076	-4463	5073	-1945	340	1998	2665
6081	-4700	5014	-2361	354	-1407	-1892
6086	-4693	4224	-2281	354	-1407	-1892
6091	-4625	3002	-1679	354	-1407	-1892
6096	-4392	2008	-1042	354	-1407	-1892
6101	-4061	1300	-402	354	-1407	-1892
6106	-3767	1100	50	354	-1407	-1892
6111	-3450	1168	272	126	-1049	-3323
6116	-3121	1162	338	126	-1049	-3323
6121	-2757	943	325	126	-1049	-3323
6126	-2443	626	285	126	-1049	-3323
6131	-2150	340	260	126	-1049	-3323
6136	-1822	117	196	126	-1049	-3323
6141	-1545	-120	175	-1300	-1397	-1284
6146	-1250	-379	182	-1300	-1397	-1284
6151	-990	-626	251	-1300	-1397	-1284
6156	-799	-834	296	-1300	-1397	-1284
6161	-675	-914	332	-1300	-1397	-1284
6166	-556	-869	386	-1300	-1397	-1284
6171	-417	-810	439	-801	68	1199
6176	-278	-774	504	-801	68	1199
6181	-165	-821	524	-801	68	1199
6186	-42	-898	526	-801	68	1199
6191	99	-1057	524	-801	68	1199
6196	165	-1258	515	-801	68	1199
6201	215	-1457	460	-801	68	1199
6206	231	-1627	380	1068	2074	4912
6211	139	-1646	334	1068	2074	4912
6216	-96	-1455	377	1068	2074	4912
6221	-543	-874	525	1068	2074	4912
6226	-1130	41	701	1068	2074	4912
6231	-1862	1301	832	1068	2074	4912
6236	-2671	2782	752	-270	349	-605
6241	-3252	3808	233	-270	349	-605
6246	-3826	4208	-531	-270	349	-605
6251	-4072	3909	-1270	-270	349	-605
6256	-4118	3138	-1837	-270	349	-605
6261	-4043	2281	-1985	-270	349	-605
6266	-3871	1588	-1684	409	-849	-2255
6271	-3606	1207	-1135	409	-849	-2255
6276	-3433	1029	-647	409	-849	-2255
6281	-3228	893	-214	409	-849	-2255
6286	-3023	709	27	409	-849	-2255
6291	-2822	509	149	409	-849	-2255
6296	-2609	333	184	-162	-1373	-2272
6301	-2382	197	184	-162	-1373	-2272
6306	-2150	29	149	-162	-1373	-2272
6311	-1911	-109	150	-162	-1373	-2272
6316	-1684	-279	157	-162	-1373	-2272
6321	-1502	-434	186	-162	-1373	-2272
6326	-1320	-612	219	-1040	-644	-304
6331	-1119	-741	331	-1040	-644	-304
6336	-939	-860	434	-1040	-644	-304
6341	-797	-949	509	-1040	-644	-304
6346	-663	-986	572	-1040	-644	-304
6351	-527	-1001	592	-1040	-644	-304
6356	-451	-989	583	-1040	-644	-304
6361	-370	-968	514	-38	826	2932
6366	-292	-969	479	-38	826	2932
6371	-214	-1026	425	-38	826	2932
6376	-188	-1131	315	-38	826	2932
6381	-236	-1312	316	-38	826	2932
6386	-427	-1326	338	-38	826	2932
6391	-653	-1115	254	783	2197	2703
6396	-887	-605	123	783	2197	2703
6401	-1318	400	67	783	2197	2703
6406	-1942	1790	-6	783	2197	2703
6411	-2484	2939	-172	783	2197	2703
6416	-2997	3734	-455	783	2197	2703
6421	-3420	3877	-851	308	-824	-802
6426	-3714	3429	-1270	308	-824	-802
6431	-3896	2781	-1466	308	-824	-802
6436	-3910	2268	-1434	308	-824	-802
6441	-3793	1837	-1127	308	-824	-802
6446	-3627	1517	-697	308	-824	-802
6451	-3471	1325	-298	647	-591	-2575
6456	-3319	1169	-55	647	-591	-2575
6461	-3123	965	113	647	-591	-2575
6466	-2885	714	211	647	-591	-2575
6471	-2661	471	243	647	-591	-2575
6476	-2438	294	257	647	-591	-2575
6481	-2216	161	272	-534	-1041	-1656
6486	-1963	5	245	-534	-1041	-1656
6491	-1760	-165	243	-534	-1041	-1656
6496	-1554	-322	253	-534	-1041	-1656
6501	-1381	-455	290	-534	-1041	-1656
6506	-1189	-632	414	-534	-1041	-1656
6511	-1049	-821	522	-534	-1041	-1656
6516	-939	-916	599	-657	492	87
6521	-788	-913	632	-657	492	87
6526	-638	-869	583	-657	492	87
6531	-501	-817	541	-657	492	87
6536	-368	-872	454	-657	492	87
6541	-241	-1019	430	-657	492	87
6546	-128	-1184	391	110	1302	4399
6551	-58	-1342	321	110	1302	4399
6556	18	-1473	301	110	1302	4399
6561	-22	-1484	220	110	1302	4399
6566	-149	-1348	108	110	1302	4399
6571	-362	-1073	5	110	1302	4399
6576	-600	-684	-55	-546	1983	1081
6581	-1057	116	-123	-546	1983	1081
6586	-1823	1776	-122	-546	1983	1081
6591	-2548	3509	-283	-546	1983	1081
6596	-3139	4806	-795	-546	1983	1081
6601	-3519	5064	-1498	-546	1983	1081
6606	-3653	4676	-2167	588	-1215	-1296
6611	-3627	3618	-2462	588	-1215	-1296
6616	-3662	2519	-2309	588	-1215	-1296
6621	-3550	1605	-1749	588	-1215	-1296
6626	-3423	1234	-1019	588	-1215	-1296
6631	-3319	1186	-378	588	-1215	-1296
6636	-3230	1264	-16	644	-702	-2941
6641	-3054	1291	180	644	-702	-2941
6646	-2805	1083	215	644	-702	-2941
6651	-2567	749	116	644	-702	-2941
6656	-2320	351	59	644	-702	-2941
6661	-2101	54	-12	644	-702	-2941
6666	-1858	-179	-68	644	-702	-2941
6671	-1625	-318	-91	642	-1055	-2172
6676	-1390	-347	-105	642	-1055	-2172
6681	-1199	-269	-76	642	-1055	-2172
6686	-958	-235	38	642	-1055	-2172
6691	-619	-367	285	642	-1055	-2172
6696	-230	-749	567	642	-1055	-2172
6701	16	-1297	810	30	1135	2439
6706	110	-1696	955	30	1135	2439
6711	149	-1856	978	30	1135	2439
6716	207	-1662	768	30	1135	2439
6721	296	-1324	450	30	1135	2439
6726	340	-1202	216	30	1135	2439
6731	287	-1338	180	-506	1670	4241
6736	74	-1497	202	-506	1670	4241
6741	-296	-1274	114	-506	1670	4241
6746	-869	-263	19	-506	1670	4241
6751	-1739	1703	-105	-506	1670	4241
6756	-2959	4501	-537	-506	1670	4241
6761	-3815	6069	-1289	1322	-563	-1311
6766	-4329	5923	-1859	1322	-563	-1311
6771	-4635	4630	-2098	1322	-563	-1311
6776	-4821	3011	-2117	1322	-563	-1311
6781	-4727	1775	-1654	1322	-563	-1311
6786	-4463	1268	-1048	1322	-563	-1311
6791	-4122	1223	-723	728	-1644	-2529
6796	-3814	1204	-567	728	-1644	-2529
6801	-3580	1002	-454	728	-1644	-2529
6806	-3394	710	-385	728	-1644	-2529
6811	-3155	541	-326	728	-1644	-2529
6816	-2920	589	-283	728	-1644	-2529
6821	-2614	625	-187	728	-1644	-2529
6826	-2264	523	-57	-575	-1327	-1949
6831	-1941	410	68	-575	-1327	-1949
6836	-1596	211	205	-575	-1327	-1949
6841	-1224	-85	355	-575	-1327	-1949
6846	-903	-540	545	-575	-1327	-1949
6851	-780	-871	694	-575	-1327	-1949
6856	-653	-890	701	286	1105	11
6861	-512	-743	615	286	1105	11
6866	-331	-682	502	286	1105	11
6871	-191	-764	363	286	1105	11
6876	-71	-857	239	286	1105	11
6881	89	-896	154	286	1105	11
6886	206	-927	58	-1308	-309	2576
6891	309	-1013	-36	-1308	-309	2576
6896	330	-1080	-121	-1308	-309	2576
6901	308	-1049	-212	-1308	-309	2576
6906	287	-928	-266	-1308	-309	2576
6911	208	-843	-223	-1308	-309	2576
6916	-73	-776	-87	-357	1804	3121
6921	-499	-507	135	-357	1804	3121
6926	-1037	6	333	-357	1804	3121
6931	-1605	623	556	-357	1804	3121
6936	-2239	1387	645	-357	1804	3121
6941	-2785	1985	419	-357	1804	3121
6946	-3282	2346	-61	51	-413	-792
6951	-3671	2535	-551	51	-413	-792
6956	-4085	2687	-1098	51	-413	-792
6961	-4480	2793	-1496	51	-413	-792
6966	-4760	2882	-1627	51	-413	-792
6971	-4868	2970	-1373	51	-413	-792
6976	-4794	2927	-999	51	-413	-792
6981	-4553	2516	-516	520	-116	-2894
6986	-4258	1965	-146	520	-116	-2894
6991	-3826	1502	72	520	-116	-2894
6996	-3383	1168	170	520	-116	-2894
7001	-3027	950	216	520	-116	-2894
7006	-2643	786	214	520	-116	-2894
7011	-2244	658	180	-537	-466	-2419
7016	-1796	460	119	-537	-466	-2419
7021	-1403	138	105	-537	-466	-2419
7026	-1088	-216	159	-537	-466	-2419
7031	-819	-429	193	-537	-466	-2419
7036	-530	-528	215	-537	-466	-2419
7041	-282	-598	239	-669	553	132
7046	-101	-715	288	-669	553	132
7051	52	-851	271	-669	553	132
7056	252	-1006	234	-669	553	132
7061	405	-1141	145	-669	553	132
7066	481	-1146	22	-669	553	132
7071	532	-1027	-132	-490	-349	3409
7076	557	-994	-277	-490	-349	3409
7081	581	-1128	-392	-490	-349	3409
7086	522	-1224	-489	-490	-349	3409
7091	411	-1265	-578	-490	-349	3409
7096	217	-1234	-577	-490	-349	3409
7101	-191	-984	-427	949	1533	2732
7106	-836	-288	-102	949	1533	2732
7111	-1490	492	246	949	1533	2732
7116	-2248	1444	407	949	1533	2732
7121	-2994	2199	280	949	1533	2732
7126	-3690	2551	-208	949	1533	2732
7131	-4384	2740	-885	949	1533	2732
7136	-4875	2946	-1412	195	-1523	-947
7141	-5152	2918	-1720	195	-1523	-947
7146	-5249	2662	-1654	195	-1523	-947
7151	-5196	2365	-1277	195	-1523	-947
7156	-5007	2147	-807	195	-1523	-947
7161	-4726	1899	-287	195	-1523	-947
7166	-4384	1607	148	200	-240	-2398
7171	-4025	1306	424	200	-240	-2398
7176	-3666	1063	501	200	-240	-2398
7181	-3325	934	466	200	-240	-2398
7186	-2957	848	326	200	-240	-2398
7191	-2575	730	165	200	-240	-2398
7196	-2216	548	15	-152	-537	-1771
7201	-1925	408	-76	-152	-537	-1771
7206	-1592	305	-171	-152	-537	-1771
7211	-1302	187	-220	-152	-537	-1771
7216	-1026	54	-186	-152	-537	-1771
7221	-784	-67	-156	-152	-537	-1771
7226	-618	-126	-94	-437	138	-562
7231	-450	-203	-18	-437	138	-562
7236	-259	-287	13	-437	138	-562
7241	-46	-436	118	-437	138	-562
7246	81	-534	193	-437	138	-562
7251	218	-566	235	-437	138	-562
7256	336	-571	215	-1028	918	1366
7261	422	-612	246	-1028	918	1366
7266	465	-611	247	-1028	918	1366
7271	528	-573	188	-1028	918	1366
7276	604	-605	56	-1028	918	1366
7281	593	-657	-130	-1028	918	1366
7286	514	-621	-369	-1028	918	1366
7291	417	-584	-568	17	35	3433
7296	215	-556	-749	17	35	3433
7301	-104	-501	-753	17	35	3433
7306	-587	-284	-603	17	35	3433
7311	-1132	92	-370	17	35	3433
7316	-1722	580	-163	17	35	3433
7321	-2433	1217	106	169	450	1049
7326	-3207	1761	186	169	450	1049
7331	-4052	2270	111	169	450	1049
7336	-4757	2717	-126	169	450	1049
7341	-5356	3104	-538	169	450	1049
7346	-5709	3215	-946	169	450	1049
7351	-5831	3023	-1113	654	-229	-2156
7356	-5781	2686	-1013	654	-229	-2156
7361	-5623	2423	-770	654	-229	-2156
7366	-5305	2159	-500	654	-229	-2156
7371	-4864	1882	-352	654	-229	-2156
7376	-4366	1570	-287	654	-229	-2156
7381	-3933	1333	-268	537	-593	-2834
7386	-3503	1157	-303	537	-593	-2834
7391	-3077	1042	-359	537	-593	-2834
7396	-2688	955	-385	537	-593	-2834
7401	-2309	850	-389	537	-593	-2834
7406	-1974	748	-386	537	-593	-2834
7411	-1616	633	-341	-415	-496	-2252
7416	-1265	512	-300	-415	-496	-2252
7421	-910	307	-251	-415	-496	-2252
7426	-593	78	-195	-415	-496	-2252
7431	-300	-197	-144	-415	-496	-2252
7436	-60	-457	-109	-415	-496	-2252
7441	176	-673	-109	-415	-496	-2252
7446	356	-895	-84	-368	794	544
7451	461	-1062	-84	-368	794	544
7456	590	-1228	-101	-368	794	544
7461	733	-1361	-117	-368	794	544
7466	788	-1449	-168	-368	794	544
7471	826	-1468	-235	-368	794	544
7476	865	-1480	-288	403	-1156	3746
7481	792	-1509	-439	403	-1156	3746
7486	644	-1494	-730	403	-1156	3746
7491	429	-1281	-960	403	-1156	3746
7496	267	-979	-976	403	-1156	3746
7501	-112	-552	-684	403	-1156	3746
7506	-573	-152	-94	520	1869	2923
7511	-1266	342	584	520	1869	2923
7516	-2155	916	1141	520	1869	2923
7521	-3120	1582	1359	520	1869	2923
7526	-3897	2101	973	520	1869	2923
7531	-4535	2426	191	520	1869	2923
7536	-5024	2724	-557	249	-912	-1721
7541	-5263	2893	-1183	249	-912	-1721
7546	-5386	2999	-1621	249	-912	-1721
7551	-5427	3325	-1673	249	-912	-1721
7556	-5203	3504	-1510	249	-912	-1721
7561	-4800	3207	-1220	249	-912	-1721
7566	-4343	2444	-819	436	-406	-2645
7571	-3907	1747	-443	436	-406	-2645
7576	-3440	1343	-70	436	-406	-2645
7581	-3037	1166	150	436	-406	-2645
7586	-2693	1090	261	436	-406	-2645
7591	-2332	993	320	436	-406	-2645
7596	-2033	864	342	436	-406	-2645
7601	-1740	715	295	-237	-336	-2396
7606	-1477	549	254	-237	-336	-2396
7611	-1188	360	168	-237	-336	-2396
7616	-890	126	93	-237	-336	-2396
7621	-611	-104	34	-237	-336	-2396
7626	-350	-316	-3	-237	-336	-2396
7631	-134	-532	11	-949	-778	-717
7636	50	-735	1	-949	-778	-717
7641	213	-856	25	-949	-778	-717
7646	383	-963	-21	-949	-778	-717
7651	540	-1079	-28	-949	-778	-717
7656	630	-1208	38	-949	-778	-717
7661	703	-1341	182	-1238	880	2174
7666	689	-1393	292	-1238	880	2174
7671	640	-1240	378	-1238	880	2174
7676	630	-1087	424	-1238	880	2174
7681	569	-1025	404	-1238	880	2174
7686	426	-959	248	-1238	880	2174
7691	215	-834	25	569	916	4055
7696	-131	-787	-292	569	916	4055
7701	-521	-680	-605	569	916	4055
7706	-1062	-100	-980	569	916	4055
7711	-1777	893	-1304	569	916	4055
7716	-2652	1986	-1477	569	916	4055
7721	-3547	2967	-1397	1203	-289	-30
7726	-4386	3487	-1306	1203	-289	-30
7731	-5091	3383	-1225	1203	-289	-30
7736	-5522	2941	-1140	1203	-289	-30
7741	-5633	2453	-1011	1203	-289	-30
7746	-5551	2127	-777	1203	-289	-30
7751	-5341	1857	-481	1203	-289	-30
7756	-5057	1550	-240	1369	-357	-1196
7761	-4735	1216	-6	1369	-357	-1196
7766	-4453	1019	85	1369	-357	-1196
7771	-4109	873	92	1369	-357	-1196
7776	-3784	798	44	1369	-357	-1196
7781	-3461	742	-55	1369	-357	-1196
7786	-3105	699	-207	484	-1246	-1866
7791	-2783	646	-282	484	-1246	-1866
7796	-2405	590	-398	484	-1246	-1866
7801	-2103	627	-421	484	-1246	-1866
7806	-1877	780	-398	484	-1246	-1866
7811	-1583	757	-351	484	-1246	-1866
7816	-1301	655	-248	114	-935	-2084
7821	-1076	543	-196	114	-935	-2084
7826	-882	379	-111	114	-935	-2084
7831	-689	147	11	114	-935	-2084
7836	-533	-100	83	114	-935	-2084
7841	-370	-307	134	114	-935	-2084
7846	-192	-483	196	0	793	-436
7851	-40	-579	229	0	793	-436
7856	86	-565	266	0	793	-436
7861	230	-560	319	0	793	-436
7866	398	-566	335	0	793	-436
7871	513	-614	325	0	793	-436
7876	607	-691	285	-608	1164	2970
7881	686	-817	229	-608	1164	2970
7886	679	-925	124	-608	1164	2970
7891	688	-964	-37	-608	1164	2970
7896	615	-929	-340	-608	1164	2970
7901	446	-888	-613	-608	1164	2970
7906	167	-891	-842	-608	1164	2970
7911	-303	-754	-899	-570	198	3041
7916	-896	-292	-759	-570	198	3041
7921	-1611	366	-579	-570	198	3041
7926	-2415	1112	-394	-570	198	3041
7931	-3390	2083	-280	-570	198	3041
7936	-4301	2839	-338	-570	198	3041
7941	-5077	3070	-405	193	643	-843
7946	-5631	2950	-469	193	643	-843
7951	-6002	2692	-510	193	643	-843
7956	-6074	2484	-592	193	643	-843
7961	-5865	2434	-654	193	643	-843
7966	-5487	2329	-715	193	643	-843
7971	-5056	2081	-749	9	-623	-2494
7976	-4546	1706	-705	9	-623	-2494
7981	-4078	1314	-666	9	-623	-2494
7986	-3607	1036	-622	9	-623	-2494
7991	-3208	890	-533	9	-623	-2494
7996	-2771	756	-452	9	-623	-2494
8001	-2405	652	-342	-383	-517	-2525
8006	-2061	581	-252	-383	-517	-2525
8011	-1749	555	-161	-383	-517	-2525
8016	-1477	529	-101	-383	-517	-2525
8021	-1177	450	-51	-383	-517	-2525
8026	-886	297	-32	-383	-517	-2525
8031	-623	99	-26	-565	-153	-1088
8036	-381	-106	-33	-565	-153	-1088
8041	-104	-300	-21	-565	-153	-1088
8046	114	-518	-54	-565	-153	-1088
8051	287	-700	-134	-565	-153	-1088
8056	452	-862	-197	-565	-153	-1088
8061	561	-997	-203	-565	-153	-1088
8066	662	-1110	-185	-1075	137	1347
8071	696	-1111	-141	-1075	137	1347
8076	718	-1065	-103	-1075	137	1347
8081	713	-1006	-110	-1075	137	1347
8086	662	-990	-128	-1075	137	1347
8091	583	-1109	-234	-1075	137	1347
8096	455	-1290	-439	487	639	5082
8101	288	-1477	-542	487	639	5082
8106	33	-1601	-532	487	639	5082
8111	-434	-1355	-445	487	639	5082
8116	-1020	-637	-320	487	639	5082
8121	-1847	325	-185	487	639	5082
8126	-2754	1300	-231	614	-212	-102
8131	-3922	2645	-452	614	-212	-102
8136	-4938	3694	-761	614	-212	-102
8141	-5620	4011	-1159	614	-212	-102
8146	-5981	3560	-1508	614	-212	-102
8151	-6094	2948	-1743	614	-212	-102
8156	-5917	2432	-1843	-589	-1610	-1706
8161	-5453	2225	-1567	-589	-1610	-1706
8166	-4764	1853	-1027	-589	-1610	-1706
8171	-4256	1247	-438	-589	-1610	-1706
8176	-3959	696	123	-589	-1610	-1706
8181	-3708	652	408	-589	-1610	-1706
8186	-3369	876	519	-105	10	-2588
8191	-3014	969	537	-105	10	-2588
8196	-2719	856	551	-105	10	-2588
8201	-2430	675	487	-105	10	-2588
8206	-2093	532	329	-105	10	-2588
8211	-1699	434	125	-105	10	-2588
8216	-1357	329	-34	-105	10	-2588
8221	-1054	198	-127	-297	-33	-1598
8226	-770	34	-165	-297	-33	-1598
8231	-528	-111	-173	-297	-33	-1598
8236	-350	-178	-206	-297	-33	-1598
8241	-202	-201	-166	-297	-33	-1598
8246	-13	-258	-110	-297	-33	-1598
8251	175	-340	-63	-394	155	345
8256	315	-513	-32	-394	155	345
8261	434	-633	-64	-394	155	345
8266	558	-779	-166	-394	155	345
8271	656	-968	-331	-394	155	345
8276	731	-1200	-515	-394	155	345
8281	738	-1316	-596	633	111	3663
8286	694	-1303	-600	633	111	3663
8291	601	-1190	-455	633	111	3663
8296	361	-1047	-186	633	111	3663
8301	-34	-891	140	633	111	3663
8306	-557	-572	481	633	111	3663
8311	-1102	-222	551	1059	-1150	3017
8316	-1813	247	281	1059	-1150	3017
8321	-2649	647	-339	1059	-1150	3017
8326	-3426	977	-933	1059	-1150	3017
8331	-4160	1467	-1197	1059	-1150	3017
8336	-5200	2452	-1069	1059	-1150	3017
8341	-6026	3302	-671	-62	-1028	-2358
8346	-6556	3855	-231	-62	-1028	-2358
8351	-6623	3902	229	-62	-1028	-2358
8356	-6301	3490	634	-62	-1028	-2358
8361	-5816	2790	945	-62	-1028	-2358
8366	-5254	2141	1093	-62	-1028	-2358
8371	-4616	1702	1096	-62	-1028	-2358
8376	-4077	1438	967	-604	-443	-3413
8381	-3510	1219	751	-604	-443	-3413
8386	-2997	1043	478	-604	-443	-3413
8391	-2448	854	240	-604	-443	-3413
8396	-1905	623	99	-604	-443	-3413
8401	-1523	403	48	-604	-443	-3413
8406	-1164	255	19	-622	853	-2695
8411	-824	183	39	-622	853	-2695
8416	-518	94	103	-622	853	-2695
8421	-251	-56	147	-622	853	-2695
8426	-12	-295	147	-622	853	-2695
8431	224	-575	104	-622	853	-2695
8436	424	-840	72	-539	1003	-13
8441	591	-998	-2	-539	1003	-13
8446	740	-1075	-26	-539	1003	-13
8451	909	-1152	-105	-539	1003	-13
8456	1001	-1162	-135	-539	1003	-13
8461	1042	-1045	-187	-539	1003	-13
8466	1103	-972	-270	-98	-310	3400
8471	1145	-1017	-376	-98	-310	3400
8476	1144	-1255	-425	-98	-310	3400
8481	1053	-1457	-439	-98	-310	3400
8486	964	-1536	-462	-98	-310	3400
8491	873	-1566	-560	-98	-310	3400
8496	689	-1492	-541	1377	2506	3900
8501	430	-1081	-280	1377	2506	3900
8506	-7	-380	107	1377	2506	3900
8511	-527	347	443	1377	2506	3900
8516	-1122	998	663	1377	2506	3900
8521	-1845	1296	627	1377	2506	3900
8526	-2697	1492	397	1377	2506	3900
8531	-3638	1831	-224	759	-2235	585
8536	-4600	2264	-1443	759	-2235	585
8541	-5414	2907	-2776	759	-2235	585
8546	-6002	3639	-3383	759	-2235	585
8551	-6254	4015	-3079	759	-2235	585
8556	-6347	3776	-2155	759	-2235	585
8561	-6250	3071	-841	170	58	-2715
8566	-6072	2437	396	170	58	-2715
8571	-5717	2015	1259	170	58	-2715
8576	-5236	1812	1618	170	58	-2715
8581	-4725	1686	1474	170	58	-2715
8586	-4072	1461	1034	170	58	-2715
8591	-3426	1151	535	-374	-771	-2721
8596	-2849	853	86	-374	-771	-2721
8601	-2294	603	-205	-374	-771	-2721
8606	-1709	260	-420	-374	-771	-2721
8611	-1279	19	-545	-374	-771	-2721
8616	-844	-133	-552	-374	-771	-2721
8621	-472	-238	-454	-288	410	-1256
8626	-190	-379	-276	-288	410	-1256
8631	5	-504	3	-288	410	-1256
8636	171	-585	225	-288	410	-1256
8641	340	-747	332	-288	410	-1256
8646	488	-987	258	-288	410	-1256
8651	643	-1262	-31	-17	127	2332
8656	798	-1421	-316	-17	127	2332
8661	933	-1491	-485	-17	127	2332
8666	1015	-1489	-561	-17	127	2332
8671	1086	-1444	-512	-17	127	2332
8676	1010	-1317	-292	-17	127	2332
8681	869	-1044	20	-17	127	2332
8686	702	-694	177	340	682	4124
8691	530	-469	91	340	682	4124
8696	316	-359	-80	340	682	4124
8701	-85	-381	-222	340	682	4124
8706	-581	-384	-150	340	682	4124
8711	-1219	-184	-32	340	682	4124
8716	-1991	430	33	-111	1084	1124
8721	-2905	1519	32	-111	1084	1124
8726	-3819	2513	-79	-111	1084	1124
8731	-4816	3178	-243	-111	1084	1124
8736	-5605	3477	-481	-111	1084	1124
8741	-6127	3633	-872	-111	1084	1124
8746	-6296	3666	-1272	162	-624	-2254
8751	-6188	3520	-1466	162	-624	-2254
8756	-5846	3179	-1345	162	-624	-2254
8761	-5435	2719	-1009	162	-624	-2254
8766	-4931	2171	-594	162	-624	-2254
8771	-4373	1739	-274	162	-624	-2254
8776	-3861	1412	-71	-461	-634	-3131
8781	-3440	1189	-8	-461	-634	-3131
8786	-3003	1064	-3	-461	-634	-3131
8791	-2571	987	-33	-461	-634	-3131
8796	-2148	869	-94	-461	-634	-3131
8801	-1760	708	-121	-461	-634	-3131
8806	-1424	530	-151	-467	-784	-2310
8811	-1057	316	-211	-467	-784	-2310
8816	-719	113	-271	-467	-784	-2310
8821	-419	-73	-320	-467	-784	-2310
8826	-178	-234	-333	-467	-784	-2310
8831	51	-370	-295	-467	-784	-2310
8836	286	-526	-237	-467	-784	-2310
8841	535	-742	-143	-1169	95	-24
8846	727	-916	9	-1169	95	-24
8851	917	-1041	96	-1169	95	-24
8856	1187	-1173	127	-1169	95	-24
8861	1369	-1336	23	-1169	95	-24
8866	1456	-1555	-95	-1169	95	-24
8871	1476	-1698	-126	280	460	5168
8876	1331	-1812	-104	280	460	5168
8881	1253	-1960	-83	280	460	5168
8886	1085	-1828	58	280	460	5168
8891	864	-1648	282	280	460	5168
8896	450	-1300	458	280	460	5168
8901	-94	-599	635	-380	2803	2006
8906	-823	236	759	-380	2803	2006
8911	-1799	1339	810	-380	2803	2006
8916	-2901	2651	664	-380	2803	2006
8921	-3976	4004	47	-380	2803	2006
8926	-4717	4636	-866	-380	2803	2006
8931	-5309	4392	-1714	823	-794	-1236
8936	-5740	3704	-2356	823	-794	-1236
8941	-5860	3141	-2742	823	-794	-1236
8946	-5726	2860	-2707	823	-794	-1236
8951	-5455	2633	-2213	823	-794	-1236
8956	-5083	2212	-1588	823	-794	-1236
8961	-4693	1718	-1075	611	-802	-1889
8966	-4261	1216	-612	611	-802	-1889
8971	-3873	892	-346	611	-802	-1889
8976	-3549	789	-228	611	-802	-1889
8981	-3249	828	-191	611	-802	-1889
8986	-3019	928	-208	611	-802	-1889
8991	-2776	989	-270	611	-802	-1889
8996	-2487	986	-321	-15	-765	-2538
9001	-2214	923	-356	-15	-765	-2538
9006	-1970	803	-384	-15	-765	-2538
9011	-1647	637	-400	-15	-765	-2538
9016	-1309	397	-400	-15	-765	-2538
9021	-994	121	-393	-15	-765	-2538
9026	-694	-149	-358	-807	-704	-1848
9031	-434	-344	-295	-807	-704	-1848
9036	-182	-498	-257	-807	-704	-1848
9041	119	-565	-250	-807	-704	-1848
9046	457	-585	-198	-807	-704	-1848
9051	810	-614	-170	-807	-704	-1848
9056	1142	-694	-197	-543	-600	1943
9061	1451	-855	-233	-543	-600	1943
9066	1660	-1097	-305	-543	-600	1943
9071	1733	-1403	-356	-543	-600	1943
9076	1721	-1666	-331	-543	-600	1943
9081	1648	-1954	-250	-543	-600	1943
9086	1420	-1982	-190	1285	1278	5177
9091	1162	-1702	-121	1285	1278	5177
9096	647	-1208	-33	1285	1278	5177
9101	-39	-546	96	1285	1278	5177
9106	-1006	480	365	1285	1278	5177
9111	-2304	1913	682	1285	1278	5177
9116	-3644	3287	785	848	182	34
9121	-4543	3834	363	848	182	34
9126	-5343	3723	-338	848	182	34
9131	-5926	3182	-965	848	182	34
9136	-6232	2706	-1313	848	182	34
9141	-6231	2555	-1288	848	182	34
9146	-5976	2522	-1072	848	182	34
9151	-5591	2261	-789	744	-531	-1522
9156	-5092	1806	-522	744	-531	-1522
9161	-4551	1374	-397	744	-531	-1522
9166	-4061	1100	-279	744	-531	-1522
9171	-3686	968	-224	744	-531	-1522
9176	-3331	956	-250	744	-531	-1522
9181	-2989	1037	-299	-105	-1200	-2367
9186	-2641	1053	-327	-105	-1200	-2367
9191	-2314	968	-290	-105	-1200	-2367
9196	-1991	776	-238	-105	-1200	-2367
9201	-1637	519	-199	-105	-1200	-2367
9206	-1297	249	-112	-105	-1200	-2367
9211	-1044	64	-25	-543	-92	-1322
9216	-745	-104	107	-543	-92	-1322
9221	-496	-253	260	-543	-92	-1322
9226	-290	-398	391	-543	-92	-1322
9231	-93	-499	485	-543	-92	-1322
9236	44	-572	493	-543	-92	-1322
9241	192	-643	419	-1243	857	686
9246	369	-759	345	-1243	857	686
9251	508	-885	256	-1243	857	686
9256	626	-974	133	-1243	857	686
9261	753	-1041	-91	-1243	857	686
9266	838	-1053	-339	-1243	857	686
9271	901	-1116	-661	323	-682	4694
9276	868	-1245	-960	323	-682	4694
9281	804	-1352	-1060	323	-682	4694
9286	644	-1483	-1029	323	-682	4694
9291	365	-1344	-800	323	-682	4694
9296	-31	-882	-400	323	-682	4694
9301	-562	-195	-22	323	-682	4694
9306	-1350	828	386	310	981	1505
9311	-2410	2086	659	310	981	1505
9316	-3433	3148	577	310	981	1505
9321	-4374	3745	84	310	981	1505
9326	-5145	3904	-467	310	981	1505
9331	-5781	3943	-796	310	981	1505
9336	-6171	3901	-870	912	878	-2285
9341	-6336	3852	-712	912	878	-2285
9346	-6246	3723	-497	912	878	-2285
9351	-5910	3472	-280	912	878	-2285
9356	-5436	3071	-217	912	878	-2285
9361	-4883	2637	-248	912	878	-2285
9366	-4268	2242	-406	258	-249	-3342
9371	-3682	1930	-539	258	-249	-3342
9376	-3084	1613	-649	258	-249	-3342
9381	-2542	1280	-735	258	-249	-3342
9386	-2014	981	-782	258	-249	-3342
9391	-1559	702	-763	258	-249	-3342
9396	-1111	425	-692	-950	-1036	-2673
9401	-692	131	-592	-950	-1036	-2673
9406	-343	-176	-445	-950	-1036	-2673
9411	-61	-456	-313	-950	-1036	-2673
9416	186	-664	-179	-950	-1036	-2673
9421	415	-855	-79	-950	-1036	-2673
9426	616	-1058	13	-914	-153	109
9431	738	-1299	100	-914	-153	109
9436	790	-1460	123	-914	-153	109
9441	879	-1531	102	-914	-153	109
9446	971	-1549	-29	-914	-153	109
9451	1043	-1586	-156	-914	-153	109
9456	1075	-1615	-257	-914	-153	109
9461	1142	-1648	-286	137	-249	4424
9466	1169	-1730	-313	137	-249	4424
9471	1132	-1725	-357	137	-249	4424
9476	1079	-1567	-444	137	-249	4424
9481	1002	-1399	-502	137	-249	4424
9486	813	-1201	-474	137	-249	4424
9491	451	-966	-402	618	1217	4735
9496	11	-518	-207	618	1217	4735
9501	-643	332	140	618	1217	4735
9506	-1389	1398	395	618	1217	4735
9511	-2157	2576	536	618	1217	4735
9516	-2937	3469	540	618	1217	4735
9521	-3763	4022	386	1102	2030	-571
9526	-4390	4325	187	1102	2030	-571
9531	-5070	4696	-273	1102	2030	-571
9536	-5535	4962	-908	1102	2030	-571
9541	-5586	4968	-1639	1102	2030	-571
9546	-5305	4609	-2213	1102	2030	-571
9551	-4964	3921	-2393	-310	-2415	-3115
9556	-4591	2953	-2267	-310	-2415	-3115
9561	-4181	2210	-1974	-310	-2415	-3115
9566	-3714	1848	-1587	-310	-2415	-3115
9571	-3345	1820	-1276	-310	-2415	-3115
9576	-2917	1740	-930	-310	-2415	-3115
9581	-2467	1488	-611	-640	-1309	-3240
9586	-2103	1134	-352	-640	-1309	-3240
9591	-1742	771	-151	-640	-1309	-3240
9596	-1438	521	1	-640	-1309	-3240
9601	-1128	325	83	-640	-1309	-3240
9606	-826	133	132	-640	-1309	-3240
9611	-553	-58	90	-640	-1309	-3240
9616	-298	-248	48	-182	249	-1435
9621	-34	-470	14	-182	249	-1435
9626	191	-666	-65	-182	249	-1435
9631	384	-861	-122	-182	249	-1435
9636	585	-1079	-168	-182	249	-1435
9641	714	-1264	-185	-182	249	-1435
9646	850	-1516	-240	-680	-1372	3865
9651	943	-1810	-320	-680	-1372	3865
9656	892	-1947	-483	-680	-1372	3865
9661	756	-1842	-762	-680	-1372	3865
9666	617	-1570	-887	-680	-1372	3865
9671	141	-1116	-778	-680	-1372	3865
9676	-628	-225	-467	-44	1319	446
9681	-1691	994	9	-44	1319	446
9686	-2949	2308	485	-44	1319	446
9691	-4154	3451	842	-44	1319	446
9696	-4970	3730	778	-44	1319	446
9701	-5520	3407	405	-44	1319	446
9706	-5793	2883	1	23	368	-1838
9711	-5784	2542	-314	23	368	-1838
9716	-5594	2462	-543	23	368	-1838
9721	-5262	2386	-587	23	368	-1838
9726	-4837	2131	-538	23	368	-1838
9731	-4418	1823	-483	23	368	-1838
9736	-3925	1468	-440	-394	-740	-2806
9741	-3428	1183	-385	-394	-740	-2806
9746	-2945	974	-387	-394	-740	-2806
9751	-2483	847	-373	-394	-740	-2806
9756	-2072	719	-355	-394	-740	-2806
9761	-1639	512	-329	-394	-740	-2806
9766	-1252	260	-304	-394	-740	-2806
9771	-916	13	-299	-444	-456	-1936
9776	-626	-180	-323	-444	-456	-1936
9781	-348	-401	-323	-444	-456	-1936
9786	-139	-610	-294	-444	-456	-1936
9791	33	-693	-300	-444	-456	-1936
9796	197	-738	-309	-444	-456	-1936
9801	373	-790	-316	-942	-86	482
9806	558	-877	-371	-942	-86	482
9811	742	-1026	-420	-942	-86	482
9816	895	-1215	-432	-942	-86	482
9821	957	-1420	-451	-942	-86	482
9826	996	-1546	-494	-942	-86	482
9831	964	-1485	-530	-1276	1033	3518
9836	919	-1366	-561	-1276	1033	3518
9841	756	-1099	-393	-1276	1033	3518
9846	565	-801	-114	-1276	1033	3518
9851	259	-658	245	-1276	1033	3518
9856	-172	-545	324	-1276	1033	3518
9861	-711	-426	99	-312	710	2472
9866	-1394	-314	-182	-312	710	2472
9871	-2276	-4	-523	-312	710	2472
9876	-3150	847	-648	-312	710	2472
9881	-4211	2339	-478	-312	710	2472
9886	-5072	3630	-264	-312	710	2472
9891	-5577	4150	-231	660	15	-1674
9896	-5938	3905	-420	660	15	-1674
9901	-6027	3047	-860	660	15	-1674
9906	-5894	2256	-1162	660	15	-1674
9911	-5590	1865	-1300	660	15	-1674
9916	-5146	1692	-1213	660	15	-1674
9921	-4716	1552	-972	660	15	-1674
9926	-4314	1346	-747	581	-1073	-3045
9931	-3898	1142	-575	581	-1073	-3045
9936	-3509	998	-495	581	-1073	-3045
9941	-3036	866	-459	581	-1073	-3045
9946	-2602	717	-447	581	-1073	-3045
9951	-2177	548	-387	581	-1073	-3045
9956	-1836	376	-321	-176	-1469	-2378
9961	-1467	158	-236	-176	-1469	-2378
9966	-1151	-48	-144	-176	-1469	-2378
9971	-850	-224	-79	-176	-1469	-2378
9976	-596	-335	-47	-176	-1469	-2378
9981	-388	-421	-23	-176	-1469	-2378
9986	-208	-555	3	61	174	-416
9991	-75	-703	54	61	174	-416
9996	10	-808	149	61	174	-416
10001	66	-864	206	61	174	-416
10006	131	-889	251	61	174	-416
10011	250	-901	216	61	174	-416
10016	348	-929	179	-826	634	2149
10021	398	-989	127	-826	634	2149
10026	451	-1065	56	-826	634	2149
10031	465	-1124	-32	-826	634	2149
10036	500	-1136	-149	-826	634	2149
10041	520	-1120	-272	-826	634	2149
10046	492	-1057	-460	301	750	5601
10051	432	-1032	-633	301	750	5601
10056	249	-1084	-667	301	750	5601
10061	-177	-1025	-544	301	750	5601
10066	-775	-598	-357	301	750	5601
10071	-1440	95	-158	301	750	5601
10076	-2305	1218	27	301	750	5601
10081	-3180	2485	-86	550	269	331
10086	-3977	3400	-401	550	269	331
10091	-4557	3917	-692	550	269	331
10096	-5023	3946	-1014	550	269	331
10101	-5318	3567	-1238	550	269	331
10106	-5405	3040	-1226	550	269	331
10111	-5311	2581	-965	565	-297	-2064
10116	-5126	2326	-663	565	-297	-2064
10121	-4803	2034	-351	565	-297	-2064
10126	-4442	1714	-145	565	-297	-2064
10131	-4057	1393	-93	565	-297	-2064
10136	-3733	1196	-112	565	-297	-2064
10141	-3351	1055	-171	-314	-1568	-3032
10146	-2977	924	-250	-314	-1568	-3032
10151	-2604	794	-314	-314	-1568	-3032
10156	-2238	623	-329	-314	-1568	-3032
10161	-1928	471	-296	-314	-1568	-3032
10166	-1607	293	-246	-314	-1568	-3032
10171	-1333	113	-155	-329	-760	-2110
10176	-1095	-67	-78	-329	-760	-2110
10181	-923	-228	-14	-329	-760	-2110
10186	-757	-343	25	-329	-760	-2110
10191	-638	-380	35	-329	-760	-2110
10196	-518	-423	14	-329	-760	-2110
10201	-405	-488	-57	-390	-557	-887
10206	-306	-555	-138	-390	-557	-887
10211	-198	-656	-209	-390	-557	-887
10216	-74	-756	-260	-390	-557	-887
10221	43	-838	-301	-390	-557	-887
10226	124	-896	-323	-390	-557	-887
10231	219	-989	-334	-390	-557	-887
10236	279	-1088	-309	-412	-404	1826
10241	334	-1167	-277	-412	-404	1826
10246	352	-1196	-252	-412	-404	1826
10251	351	-1186	-234	-412	-404	1826
10256	316	-1115	-222	-412	-404	1826
10261	174	-1026	-158	-412	-404	1826
10266	-27	-972	-165	542	703	5013
10271	-290	-927	-176	542	703	5013
10276	-609	-796	-139	542	703	5013
10281	-1004	-481	-77	542	703	5013
10286	-1390	-177	-14	542	703	5013
10291	-1940	282	68	542	703	5013
10296	-2582	938	176	786	1946	1812
10301	-3236	1700	301	786	1946	1812
10306	-3722	2273	238	786	1946	1812
10311	-4271	2802	58	786	1946	1812
10316	-4602	3072	-183	786	1946	1812
10321	-4806	3149	-427	786	1946	1812
10326	-4833	2980	-652	462	-645	-1086
10331	-4788	2618	-811	462	-645	-1086
10336	-4606	2116	-892	462	-645	-1086
10341	-4446	1718	-878	462	-645	-1086
10346	-4275	1455	-768	462	-645	-1086
10351	-4037	1326	-587	462	-645	-1086
10356	-3805	1315	-379	795	-524	-2793
10361	-3680	1426	-206	795	-524	-2793
10366	-3454	1555	-26	795	-524	-2793
10371	-3150	1506	20	795	-524	-2793
10376	-2810	1253	-23	795	-524	-2793
10381	-2456	938	-64	795	-524	-2793
10386	-2179	664	-118	795	-524	-2793
10391	-1861	415	-136	273	-1209	-2578
10396	-1562	246	-177	273	-1209	-2578
10401	-1295	146	-171	273	-1209	-2578
10406	-1036	85	-146	273	-1209	-2578
10411	-780	16	-76	273	-1209	-2578
10416	-539	-126	-46	273	-1209	-2578
10421	-321	-294	21	14	-555	-757
10426	-126	-470	103	14	-555	-757
10431	32	-673	171	14	-555	-757
10436	173	-898	234	14	-555	-757
10441	316	-1087	317	14	-555	-757
10446	439	-1271	371	14	-555	-757
10451	581	-1464	468	-1219	958	4016
10456	657	-1637	553	-1219	958	4016
10461	619	-1760	588	-1219	958	4016
10466	580	-1596	489	-1219	958	4016
10471	777	-1407	413	-1219	958	4016
10476	810	-1400	202	-1219	958	4016
10481	600	-1743	-312	627	713	1549
10486	112	-1803	-906	627	713	1549
10491	-818	-245	-1185	627	713	1549
10496	-2354	3142	-1030	627	713	1549
10501	-3582	5489	-666	627	713	1549
10506	-4338	6212	-261	627	713	1549
10511	-4993	5742	-324	737	1072	-1563
10516	-5128	4327	-557	737	1072	-1563
10521	-5017	2917	-578	737	1072	-1563
10526	-4885	1849	-448	737	1072	-1563
10531	-4550	1581	-116	737	1072	-1563
10536	-4190	1730	221	737	1072	-1563
10541	-4001	1653	333	737	1072	-1563
10546	-3813	1380	283	371	-371	-2717
10551	-3499	1070	56	371	-371	-2717
10556	-3210	821	-233	371	-371	-2717
10561	-2997	791	-462	371	-371	-2717
10566	-2783	840	-580	371	-371	-2717
10571	-2484	818	-660	371	-371	-2717
10576	-2150	759	-648	-796	-1756	-2121
10581	-1798	567	-553	-796	-1756	-2121
10586	-1390	146	-384	-796	-1756	-2121
10591	-1021	-366	-200	-796	-1756	-2121
10596	-843	-816	-14	-796	-1756	-2121
10601	-690	-835	115	-796	-1756	-2121
10606	-436	-667	218	-515	2	-155
10611	-227	-607	271	-515	2	-155
10616	-88	-718	328	-515	2	-155
10621	8	-926	344	-515	2	-155
10626	230	-1115	354	-515	2	-155
10631	440	-1336	359	-515	2	-155
10636	511	-1446	356	-942	373	2148
10641	458	-1209	323	-942	373	2148
10646	464	-811	254	-942	373	2148
10651	467	-664	130	-942	373	2148
10656	464	-780	-16	-942	373	2148
10661	404	-1024	-192	-942	373	2148
10666	273	-1133	-380	-185	1556	3474
10671	83	-1069	-414	-185	1556	3474
10676	-363	-828	-311	-185	1556	3474
10681	-1060	-377	-93	-185	1556	3474
10686	-2108	638	281	-185	1556	3474
10691	-3215	1897	556	-185	1556	3474
10696	-4166	2885	360	-185	1556	3474
10701	-4945	3346	-162	114	289	-785
10706	-5555	3546	-776	114	289	-785
10711	-5850	3331	-1360	114	289	-785
10716	-5959	3000	-1759	114	289	-785
10721	-5830	2675	-1787	114	289	-785
10726	-5527	2438	-1527	114	289	-785
10731	-5079	2049	-1071	641	-196	-2305
10736	-4617	1573	-676	641	-196	-2305
10741	-4121	1180	-395	641	-196	-2305
10746	-3695	890	-275	641	-196	-2305
10751	-3301	662	-208	641	-196	-2305
10756	-2910	559	-188	641	-196	-2305
10761	-2525	574	-189	-33	-948	-2746
10766	-2129	610	-192	-33	-948	-2746
10771	-1776	506	-199	-33	-948	-2746
10776	-1417	299	-192	-33	-948	-2746
10781	-1082	64	-168	-33	-948	-2746
10786	-795	-136	-155	-33	-948	-2746
10791	-560	-275	-149	-143	-160	-1054
10796	-318	-304	-118	-143	-160	-1054
10801	-54	-452	-38	-143	-160	-1054
10806	154	-694	58	-143	-160	-1054
10811	371	-952	148	-143	-160	-1054
10816	528	-1108	178	-143	-160	-1054
10821	731	-1184	115	-718	214	1810
10826	861	-1214	56	-718	214	1810
10831	941	-1219	-20	-718	214	1810
10836	969	-1179	-115	-718	214	1810
10841	997	-1109	-157	-718	214	1810
10846	965	-1108	-156	-718	214	1810
10851	969	-1168	-177	-718	214	1810
10856	911	-1150	-283	-200	759	4329
10861	754	-959	-408	-200	759	4329
10866	495	-692	-442	-200	759	4329
10871	50	-395	-350	-200	759	4329
10876	-666	27	-95	-200	759	4329
10881	-1484	738	146	-200	759	4329
10886	-2449	1708	282	436	886	1186
10891	-3390	2548	-19	436	886	1186
10896	-4240	2976	-721	436	886	1186
10901	-4866	2938	-1537	436	886	1186
10906	-5318	2610	-2094	436	886	1186
10911	-5739	2264	-2311	436	886	1186
10916	-6000	2181	-2089	378	-854	-1905
10921	-6026	2223	-1598	378	-854	-1905
10926	-5822	2078	-1104	378	-854	-1905
10931	-5496	1607	-640	378	-854	-1905
10936	-5205	1178	-295	378	-854	-1905
10941	-4831	1001	-89	378	-854	-1905
10946	-4392	974	-17	146	-625	-3048
10951	-4031	936	23	146	-625	-3048
10956	-3602	842	15	146	-625	-3048
10961	-3110	762	-80	146	-625	-3048
10966	-2640	647	-191	146	-625	-3048
10971	-2215	517	-257	146	-625	-3048
10976	-1811	338	-334	-130	-1051	-2232
10981	-1460	150	-366	-130	-1051	-2232
10986	-1122	-22	-422	-130	-1051	-2232
10991	-801	-129	-456	-130	-1051	-2232
10996	-537	-212	-455	-130	-1051	-2232
11001	-250	-356	-428	-130	-1051	-2232
11006	-17	-477	-363	-130	-1051	-2232
11011	207	-563	-286	-521	-371	-580
11016	381	-577	-209	-521	-371	-580
11021	575	-689	-135	-521	-371	-580
11026	757	-891	-63	-521	-371	-580
11031	892	-1069	-29	-521	-371	-580
11036	1040	-1205	-10	-521	-371	-580
11041	1131	-1296	-12	-266	634	3353
11046	1179	-1407	-17	-266	634	3353
11051	1201	-1494	-43	-266	634	3353
11056	1180	-1453	-33	-266	634	3353
11061	1132	-1344	-74	-266	634	3353
11066	1084	-1180	-145	-266	634	3353
11071	985	-929	-185	-987	682	5385
11076	775	-620	-224	-987	682	5385
11081	442	-298	-203	-987	682	5385
11086	-53	-68	-92	-987	682	5385
11091	-842	278	88	-987	682	5385
11096	-1752	803	255	-987	682	5385
11101	-2602	1382	263	338	1580	841
11106	-3561	2344	78	338	1580	841
11111	-4488	3482	-183	338	1580	841
11116	-5186	4277	-585	338	1580	841
11121	-5739	4426	-1156	338	1580	841
11126	-6051	4104	-1655	338	1580	841
11131	-6019	3602	-1959	740	-1160	-1826
11136	-5733	3005	-2003	740	-1160	-1826
11141	-5365	2380	-1793	740	-1160	-1826
11146	-4951	1801	-1423	740	-1160	-1826
11151	-4579	1411	-1072	740	-1160	-1826
11156	-4302	1216	-778	740	-1160	-1826
11161	-3958	1132	-544	740	-1160	-1826
11166	-3633	1111	-405	-29	-1426	-2983
11171	-3313	1109	-288	-29	-1426	-2983
11176	-3001	1059	-204	-29	-1426	-2983
11181	-2669	957	-201	-29	-1426	-2983
11186	-2350	835	-155	-29	-1426	-2983
11191	-2053	671	-183	-29	-1426	-2983
11196	-1764	492	-168	-30	-1011	-2474
11201	-1519	361	-178	-30	-1011	-2474
11206	-1274	230	-154	-30	-1011	-2474
11211	-1040	115	-124	-30	-1011	-2474
11216	-799	5	-114	-30	-1011	-2474
11221	-597	-48	-115	-30	-1011	-2474
11226	-353	-128	-116	-2572	-845	-1628
11231	-117	-251	-121	-2572	-845	-1628
11236	85	-365	-112	-2572	-845	-1628
11241	278	-458	-27	-2572	-845	-1628
11246	504	-498	151	-2572	-845	-1628
11251	771	-831	321	-2572	-845	-1628
11256	968	-1361	341	43	-147	3254
11261	1131	-1914	183	43	-147	3254
11266	1099	-2063	-84	43	-147	3254
11271	1209	-2011	-381	43	-147	3254
11276	1263	-1965	-564	43	-147	3254
11281	1165	-1922	-511	43	-147	3254
11286	988	-1717	-316	1306	1359	6277
11291	819	-1533	-84	1306	1359	6277
11296	263	-952	177	1306	1359	6277
11301	-618	-49	362	1306	1359	6277
11306	-1501	639	295	1306	1359	6277
11311	-2322	1184	28	1306	1359	6277
11316	-3290	2123	-177	1306	1359	6277
11321	-4251	3601	-143	769	-3	25
11326	-4934	4651	-252	769	-3	25
11331	-5407	4925	-795	769	-3	25
11336	-5699	4601	-1391	769	-3	25
11341	-5707	4024	-1756	769	-3	25
11346	-5457	3450	-1644	769	-3	25
11351	-5121	2794	-1176	860	174	-2250
11356	-4813	2261	-690	860	174	-2250
11361	-4503	1922	-147	860	174	-2250
11366	-4189	1742	259	860	174	-2250
11371	-3852	1573	368	860	174	-2250
11376	-3525	1381	301	860	174	-2250
11381	-3225	1209	166	605	-782	-2893
11386	-2882	1060	-113	605	-782	-2893
11391	-2575	971	-313	605	-782	-2893
11396	-2325	953	-443	605	-782	-2893
11401	-2075	947	-506	605	-782	-2893
11406	-1762	901	-501	605	-782	-2893
11411	-1443	779	-485	426	-1382	-3039
11416	-1147	552	-421	426	-1382	-3039
11421	-891	306	-376	426	-1382	-3039
11426	-668	181	-335	426	-1382	-3039
11431	-448	158	-286	426	-1382	-3039
11436	-200	55	-252	426	-1382	-3039
11441	6	-189	-162	43	-409	-625
11446	191	-529	-58	43	-409	-625
11451	285	-862	6	43	-409	-625
11456	347	-1017	53	43	-409	-625
11461	429	-1122	142	43	-409	-625
11466	502	-1224	171	43	-409	-625
11471	510	-1255	266	43	-409	-625
11476	455	-1315	317	231	941	2694
11481	396	-1257	230	231	941	2694
11486	389	-1105	76	231	941	2694
11491	404	-1065	-78	231	941	2694
11496	379	-1121	-209	231	941	2694
11501	343	-1207	-332	231	941	2694
11506	232	-1224	-477	608	256	4216
11511	27	-1008	-537	608	256	4216
11516	-281	-626	-479	608	256	4216
11521	-863	-66	-502	608	256	4216
11526	-1671	725	-592	608	256	4216
11531	-2606	1638	-612	608	256	4216
11536	-3461	2305	-471	225	644	-341
11541	-4367	2668	-183	225	644	-341
11546	-5122	2853	154	225	644	-341
11551	-5677	3108	413	225	644	-341
11556	-5950	3301	449	225	644	-341
11561	-5948	3181	319	225	644	-341
11566	-5714	2680	122	169	191	-2652
11571	-5287	2123	-49	169	191	-2652
11576	-4771	1702	-187	169	191	-2652
11581	-4316	1436	-290	169	191	-2652
11586	-3827	1196	-386	169	191	-2652
11591	-3376	1008	-458	169	191	-2652
11596	-2961	842	-523	-253	-1018	-2217
11601	-2542	666	-530	-253	-1018	-2217
11606	-2218	513	-507	-253	-1018	-2217
11611	-1882	355	-469	-253	-1018	-2217
11616	-1541	147	-379	-253	-1018	-2217
11621	-1275	-31	-310	-253	-1018	-2217
11626	-1065	-114	-238	-253	-1018	-2217
11631	-848	-153	-179	-111	-531	-1478
11636	-650	-246	-95	-111	-531	-1478
11641	-463	-382	-12	-111	-531	-1478
11646	-288	-492	29	-111	-531	-1478
11651	-140	-571	21	-111	-531	-1478
11656	33	-714	14	-111	-531	-1478
11661	150	-866	3	-439	-113	976
11666	285	-1016	-18	-439	-113	976
11671	428	-1200	7	-439	-113	976
11676	437	-1370	31	-439	-113	976
11681	412	-1381	46	-439	-113	976
11686	391	-1258	61	-439	-113	976
11691	332	-1071	14	598	1184	3976
11696	235	-948	-21	598	1184	3976
11701	85	-932	-30	598	1184	3976
11706	-91	-1013	-30	598	1184	3976
11711	-304	-1041	-93	598	1184	3976
11716	-611	-945	-112	598	1184	3976
11721	-983	-844	-319	-203	-464	1344
11726	-1493	-614	-712	-203	-464	1344
11731	-2129	153	-972	-203	-464	1344
11736	-3139	1889	-967	-203	-464	1344
11741	-3942	3517	-960	-203	-464	1344
11746	-4627	4686	-1040	-203	-464	1344
11751	-5173	4550	-923	1180	145	-2020
11756	-5523	3469	-751	1180	145	-2020
11761	-5583	2495	-626	1180	145	-2020
11766	-5399	2099	-532	1180	145	-2020
11771	-5033	2014	-412	1180	145	-2020
11776	-4648	1918	-360	1180	145	-2020
11781	-4240	1675	-339	1180	145	-2020
11786	-3878	1426	-349	1237	-1105	-2934
11791	-3467	1191	-384	1237	-1105	-2934
11796	-3074	1006	-440	1237	-1105	-2934
11801	-2680	894	-467	1237	-1105	-2934
11806	-2293	711	-437	1237	-1105	-2934
11811	-1949	485	-347	1237	-1105	-2934
11816	-1599	210	-215	-380	-1807	-1538
11821	-1329	-45	-101	-380	-1807	-1538
11826	-1091	-213	6	-380	-1807	-1538
11831	-877	-340	113	-380	-1807	-1538
11836	-699	-390	265	-380	-1807	-1538
11841	-578	-342	424	-380	-1807	-1538
11846	-419	-350	537	-508	-353	-682
11851	-264	-433	617	-508	-353	-682
11856	-140	-561	617	-508	-353	-682
11861	-5	-708	595	-508	-353	-682
11866	117	-817	547	-508	-353	-682
11871	199	-915	502	-508	-353	-682
11876	264	-986	456	-699	1091	2311
11881	345	-1044	448	-699	1091	2311
11886	411	-1135	460	-699	1091	2311
11891	426	-1173	439	-699	1091	2311
11896	393	-1061	393	-699	1091	2311
11901	389	-863	284	-699	1091	2311
11906	425	-781	161	-121	1184	5729
11911	358	-834	72	-121	1184	5729
11916	188	-820	18	-121	1184	5729
11921	46	-772	-16	-121	1184	5729
11926	-129	-784	-83	-121	1184	5729
11931	-447	-676	-254	-121	1184	5729
11936	-984	-22	-198	-121	1184	5729
11941	-1698	1099	-90	-664	1675	537
11946	-2380	2221	-40	-664	1675	537
11951	-3256	3513	-5	-664	1675	537
11956	-4250	4789	7	-664	1675	537
11961	-4939	5179	-187	-664	1675	537
11966	-5383	4633	-582	-664	1675	537
11971	-5702	3725	-1080	115	-321	-2255
11976	-5761	3068	-1372	115	-321	-2255
11981	-5630	2786	-1335	115	-321	-2255
11986	-5347	2673	-1001	115	-321	-2255
11991	-5023	2539	-646	115	-321	-2255
11996	-4611	2277	-352	115	-321	-2255
12001	-4204	1880	-192	-627	-444	-3128
12006	-3779	1544	-101	-627	-444	-3128
12011	-3439	1280	-74	-627	-444	-3128
12016	-3055	1021	-109	-627	-444	-3128
12021	-2677	816	-138	-627	-444	-3128
12026	-2331	651	-197	-627	-444	-3128
12031	-2021	476	-203	-686	-237	-2478
12036	-1794	326	-249	-686	-237	-2478
12041	-1545	172	-299	-686	-237	-2478
12046	-1331	57	-340	-686	-237	-2478
12051	-1174	-50	-387	-686	-237	-2478
12056	-1055	-115	-430	-686	-237	-2478
12061	-940	-173	-448	343	206	-1495
12066	-876	-213	-493	343	206	-1495
12071	-808	-247	-509	343	206	-1495
12076	-773	-295	-521	343	206	-1495
12081	-792	-374	-525	343	206	-1495
12086	-782	-430	-515	343	206	-1495
12091	-750	-491	-501	343	206	-1495
12096	-721	-563	-513	466	-116	-273
12101	-732	-654	-508	466	-116	-273
12106	-772	-725	-490	466	-116	-273
12111	-786	-738	-439	466	-116	-273
12116	-791	-694	-408	466	-116	-273
12121	-806	-598	-359	466	-116	-273
12126	-820	-528	-323	156	-511	-357
12131	-778	-449	-260	156	-511	-357
12136	-762	-367	-251	156	-511	-357
12141	-728	-343	-228	156	-511	-357
12146	-665	-414	-206	156	-511	-357
12151	-584	-476	-188	156	-511	-357
12156	-485	-556	-167	-1004	-510	1142
12161	-354	-657	-114	-1004	-510	1142
12166	-202	-810	-16	-1004	-510	1142
12171	-141	-849	106	-1004	-510	1142
12176	-58	-833	240	-1004	-510	1142
12181	136	-858	270	-1004	-510	1142
12186	294	-956	185	932	2406	4846
12191	300	-1037	138	932	2406	4846
12196	226	-1055	246	932	2406	4846
12201	35	-1031	384	932	2406	4846
12206	-268	-1182	497	932	2406	4846
12211	-686	-1455	361	932	2406	4846
12216	-1128	-1173	145	-805	-536	1886
12221	-1852	25	-128	-805	-536	1886
12226	-2785	1393	-521	-805	-536	1886
12231	-3854	2476	-1080	-805	-536	1886
12236	-4815	3168	-1466	-805	-536	1886
12241	-5730	3380	-1522	-805	-536	1886
12246	-6428	3313	-1203	-805	-536	1886
12251	-6868	3191	-783	884	178	-1999
12256	-6947	3121	-462	884	178	-1999
12261	-6716	3020	-375	884	178	-1999
12266	-6239	2760	-485	884	178	-1999
12271	-5603	2259	-637	884	178	-1999
12276	-4987	1761	-742	884	178	-1999
12281	-4412	1426	-773	167	-997	-2814
12286	-3882	1197	-720	167	-997	-2814
12291	-3357	1098	-667	167	-997	-2814
12296	-2837	973	-611	167	-997	-2814
12301	-2378	791	-550	167	-997	-2814
12306	-2008	628	-513	167	-997	-2814
12311	-1617	450	-465	-174	-971	-2373
12316	-1283	312	-430	-174	-971	-2373
12321	-992	203	-393	-174	-971	-2373
12326	-734	76	-436	-174	-971	-2373
12331	-520	-105	-457	-174	-971	-2373
12336	-266	-354	-494	-174	-971	-2373
12341	-62	-608	-478	89	-748	-669
12346	73	-754	-450	89	-748	-669
12351	190	-809	-428	89	-748	-669
12356	316	-858	-371	89	-748	-669
12361	426	-893	-284	89	-748	-669
12366	516	-892	-183	89	-748	-669
12371	572	-867	-87	-13	312	1654
12376	682	-937	-20	-13	312	1654
12381	765	-1132	74	-13	312	1654
12386	776	-1271	117	-13	312	1654
12391	762	-1212	119	-13	312	1654
12396	757	-1076	119	-13	312	1654
12401	728	-976	154	-13	312	1654
12406	671	-914	168	491	1705	3632
12411	563	-841	163	491	1705	3632
12416	358	-733	131	491	1705	3632
12421	158	-602	96	491	1705	3632
12426	-104	-458	16	491	1705	3632
12431	-440	-343	-90	491	1705	3632
12436	-879	-134	-231	-344	295	2828
12441	-1413	255	-407	-344	295	2828
12446	-2159	822	-581	-344	295	2828
12451	-3034	1559	-667	-344	295	2828
12456	-3989	2345	-778	-344	295	2828
12461	-4844	3061	-822	-344	295	2828
12466	-5445	3445	-803	911	149	-773
12471	-5881	3541	-790	911	149	-773
12476	-6111	3294	-841	911	149	-773
12481	-6092	2918	-933	911	149	-773
12486	-5906	2636	-999	911	149	-773
12491	-5554	2355	-975	911	149	-773
12496	-5161	2050	-923	283	-1237	-2419
12501	-4736	1796	-781	283	-1237	-2419
12506	-4299	1610	-647	283	-1237	-2419
12511	-3879	1441	-551	283	-1237	-2419
12516	-3439	1278	-454	283	-1237	-2419
12521	-3023	1139	-363	283	-1237	-2419
12526	-2624	1009	-299	-432	-901	-2626
12531	-2289	901	-268	-432	-901	-2626
12536	-1911	758	-194	-432	-901	-2626
12541	-1557	547	-129	-432	-901	-2626
12546	-1197	278	-53	-432	-901	-2626
12551	-944	47	-6	-432	-901	-2626
12556	-740	-95	-6	-432	-901	-2626
12561	-535	-186	-59	-607	-511	-1577
12566	-313	-263	-109	-607	-511	-1577
12571	-104	-434	-106	-607	-511	-1577
12576	30	-624	-120	-607	-511	-1577
12581	148	-827	-98	-607	-511	-1577
12586	251	-965	-136	-607	-511	-1577
12591	352	-1066	-129	-196	-149	503
12596	422	-1128	-109	-196	-149	503
12601	432	-1051	-105	-196	-149	503
12606	500	-1007	-95	-196	-149	503
12611	590	-1173	2	-196	-149	503
12616	667	-1471	114	-196	-149	503
12621	626	-1573	194	-345	493	3786
12626	603	-1420	183	-345	493	3786
12631	588	-1153	132	-345	493	3786
12636	516	-1037	109	-345	493	3786
12641	337	-968	74	-345	493	3786
12646	179	-718	60	-345	493	3786
12651	-130	-226	-162	494	-1305	3005
12656	-637	521	-621	494	-1305	3005
12661	-1237	1372	-1102	494	-1305	3005
12666	-1842	1865	-1305	494	-1305	3005
12671	-2649	2023	-1103	494	-1305	3005
12676	-3552	1975	-500	494	-1305	3005
12681	-4409	2156	167	1238	1088	-653
12686	-5131	2575	690	1238	1088	-653
12691	-5586	3080	893	1238	1088	-653
12696	-5836	3500	808	1238	1088	-653
12701	-5796	3414	534	1238	1088	-653
12706	-5596	2812	209	1238	1088	-653
12711	-5287	2154	67	1238	1088	-653
12716	-4932	1578	55	354	55	-2176
12721	-4652	1321	144	354	55	-2176
12726	-4372	1314	305	354	55	-2176
12731	-4091	1359	428	354	55	-2176
12736	-3829	1338	482	354	55	-2176
12741	-3474	1210	417	354	55	-2176
12746	-3091	1030	256	-7	-536	-2598
12751	-2718	861	125	-7	-536	-2598
12756	-2381	677	-3	-7	-536	-2598
12761	-2032	488	-92	-7	-536	-2598
12766	-1703	329	-156	-7	-536	-2598
12771	-1408	179	-179	-7	-536	-2598
12776	-1158	18	-176	-390	-848	-1980
12781	-964	-100	-155	-390	-848	-1980
12786	-727	-208	-171	-390	-848	-1980
12791	-493	-290	-171	-390	-848	-1980
12796	-325	-465	-146	-390	-848	-1980
12801	-217	-647	-69	-390	-848	-1980
12806	-114	-841	-19	-1054	-234	242
12811	-4	-956	11	-1054	-234	242
12816	147	-1095	64	-1054	-234	242
12821	346	-1272	128	-1054	-234	242
12826	505	-1397	200	-1054	-234	242
12831	619	-1495	258	-1054	-234	242
12836	647	-1482	220	170	1356	2952
12841	634	-1332	104	170	1356	2952
12846	623	-1117	33	170	1356	2952
12851	595	-893	-9	170	1356	2952
12856	550	-805	-43	170	1356	2952
12861	517	-779	-96	170	1356	2952
12866	454	-695	-117	170	1356	2952
12871	333	-605	-90	-91	1590	4174
12876	16	-467	-63	-91	1590	4174
12881	-471	-122	-130	-91	1590	4174
12886	-1200	632	-417	-91	1590	4174
12891	-2013	1482	-793	-91	1590	4174
12896	-3092	2691	-1226	-91	1590	4174
12901	-4135	3643	-1494	727	383	-45
12906	-4956	3935	-1543	727	383	-45
12911	-5550	3691	-1374	727	383	-45
12916	-5897	3315	-1114	727	383	-45
12921	-6067	2931	-854	727	383	-45
12926	-6006	2657	-672	727	383	-45
12931	-5749	2402	-537	414	-1006	-2236
12936	-5441	2053	-449	414	-1006	-2236
12941	-5064	1695	-379	414	-1006	-2236
12946	-4645	1439	-319	414	-1006	-2236
12951	-4237	1316	-263	414	-1006	-2236
12956	-3842	1250	-214	414	-1006	-2236
12961	-3517	1220	-197	-134	-941	-2922
12966	-3152	1201	-161	-134	-941	-2922
12971	-2744	1117	-181	-134	-941	-2922
12976	-2307	960	-203	-134	-941	-2922
12981	-1956	769	-208	-134	-941	-2922
12986	-1611	573	-223	-134	-941	-2922
12991	-1239	356	-274	-439	-761	-2024
12996	-890	128	-343	-439	-761	-2024
13001	-583	-50	-352	-439	-761	-2024
13006	-310	-234	-311	-439	-761	-2024
13011	-52	-420	-272	-439	-761	-2024
13016	221	-588	-233	-439	-761	-2024
13021	451	-715	-150	-439	-761	-2024
13026	598	-867	-88	-397	-290	477
13031	722	-1021	-83	-397	-290	477
13036	798	-1095	-152	-397	-290	477
13041	887	-1117	-195	-397	-290	477
13046	942	-1240	-218	-397	-290	477
13051	911	-1343	-199	-397	-290	477
13056	889	-1385	-162	186	-88	3900
13061	847	-1354	-89	186	-88	3900
13066	703	-1292	-46	186	-88	3900
13071	507	-1095	-66	186	-88	3900
13076	321	-806	-5	186	-88	3900
13081	-69	-363	149	186	-88	3900
13086	-584	163	382	-205	1642	2839
13091	-1149	639	609	-205	1642	2839
13096	-1758	1065	702	-205	1642	2839
13101	-2516	1439	658	-205	1642	2839
13106	-3345	1765	408	-205	1642	2839
13111	-4154	2115	38	-205	1642	2839
13116	-4830	2587	-388	386	520	-1107
13121	-5287	3000	-738	386	520	-1107
13126	-5581	3179	-960	386	520	-1107
13131	-5714	2996	-988	386	520	-1107
13136	-5607	2553	-885	386	520	-1107
13141	-5336	2103	-768	386	520	-1107
13146	-4935	1682	-641	212	-1049	-2307
13151	-4520	1366	-575	212	-1049	-2307
13156	-4093	1125	-543	212	-1049	-2307
13161	-3689	970	-530	212	-1049	-2307
13166	-3357	869	-496	212	-1049	-2307
13171	-3014	824	-446	212	-1049	-2307
13176	-2658	784	-412	212	-1049	-2307
13181	-2344	721	-361	-230	-1290	-2378
13186	-2067	616	-264	-230	-1290	-2378
13191	-1770	458	-164	-230	-1290	-2378
13196	-1484	328	-75	-230	-1290	-2378
13201	-1232	161	29	-230	-1290	-2378
13206	-999	19	77	-230	-1290	-2378
13211	-808	-89	80	-294	-627	-1459
13216	-576	-232	68	-294	-627	-1459
13221	-381	-375	80	-294	-627	-1459
13226	-210	-480	105	-294	-627	-1459
13231	-49	-594	111	-294	-627	-1459
13236	106	-707	142	-294	-627	-1459
13241	243	-879	143	-449	-6	913
13246	349	-1019	140	-449	-6	913
13251	444	-1078	142	-449	-6	913
13256	508	-1140	118	-449	-6	913
13261	533	-1213	128	-449	-6	913
13266	511	-1230	147	-449	-6	913
13271	490	-1188	124	218	1391	4391
13276	485	-1207	101	218	1391	4391
13281	407	-1238	71	218	1391	4391
13286	244	-1258	134	218	1391	4391
13291	7	-1200	179	218	1391	4391
13296	-351	-961	197	218	1391	4391
13301	-850	-525	162	-183	1252	1676
13306	-1538	216	159	-183	1252	1676
13311	-2260	1217	24	-183	1252	1676
13316	-3048	2305	-248	-183	1252	1676
13321	-3837	3147	-624	-183	1252	1676
13326	-4603	3577	-1069	-183	1252	1676
13331	-5130	3493	-1396	-183	1252	1676
13336	-5412	3120	-1501	1015	-344	-1239
13341	-5445	2699	-1412	1015	-344	-1239
13346	-5295	2373	-1187	1015	-344	-1239
13351	-5015	2048	-881	1015	-344	-1239
13356	-4671	1727	-607	1015	-344	-1239
13361	-4320	1396	-405	1015	-344	-1239
13366	-4033	1205	-282	228	-1049	-2392
13371	-3745	1151	-145	228	-1049	-2392
13376	-3493	1135	-42	228	-1049	-2392
13381	-3232	1131	32	228	-1049	-2392
13386	-2938	1042	71	228	-1049	-2392
13391	-2650	888	88	228	-1049	-2392
13396	-2328	681	114	-280	-892	-2500
13401	-2021	479	164	-280	-892	-2500
13406	-1721	329	186	-280	-892	-2500
13411	-1481	226	200	-280	-892	-2500
13416	-1196	124	182	-280	-892	-2500
13421	-919	-6	170	-280	-892	-2500
13426	-656	-147	147	-1746	-438	-958
13431	-374	-369	171	-1746	-438	-958
13436	-115	-638	243	-1746	-438	-958
13441	161	-1021	491	-1746	-438	-958
13446	257	-1285	682	-1746	-438	-958
13451	339	-1233	730	-1746	-438	-958
13456	542	-1070	639	-496	779	2233
13461	733	-954	478	-496	779	2233
13466	810	-1093	347	-496	779	2233
13471	814	-1349	208	-496	779	2233
13476	816	-1553	-49	-496	779	2233
13481	772	-1627	-283	-496	779	2233
13486	678	-1642	-503	-496	779	2233
13491	510	-1565	-642	-62	459	4065
13496	231	-1314	-675	-62	459	4065
13501	-211	-785	-543	-62	459	4065
13506	-986	259	-330	-62	459	4065
13511	-1925	1598	-101	-62	459	4065
13516	-2765	2727	89	-62	459	4065
13521	-3514	3374	79	474	734	364
13526	-4150	3385	-63	474	734	364
13531	-4736	3068	-325	474	734	364
13536	-5068	2793	-745	474	734	364
13541	-5165	2686	-1046	474	734	364
13546	-5117	2583	-1112	474	734	364
13551	-4959	2312	-914	118	-420	-1574
13556	-4680	1868	-621	118	-420	-1574
13561	-4348	1365	-295	118	-420	-1574
13566	-4076	1024	-65	118	-420	-1574
13571	-3874	907	67	118	-420	-1574
13576	-3643	858	119	118	-420	-1574
13581	-3418	827	76	197	-86	-2118
13586	-3282	811	52	197	-86	-2118
13591	-3196	831	63	197	-86	-2118
13596	-3021	832	-21	197	-86	-2118
13601	-2788	784	-172	197	-86	-2118
13606	-2516	715	-294	197	-86	-2118
13611	-2260	596	-350	-501	-1237	-2531
13616	-2005	495	-428	-501	-1237	-2531
13621	-1694	352	-481	-501	-1237	-2531
13626	-1328	232	-550	-501	-1237	-2531
13631	-976	57	-588	-501	-1237	-2531
13636	-679	-161	-570	-501	-1237	-2531
13641	-384	-430	-501	-501	-1237	-2531
13646	-98	-670	-422	-113	-755	-329
13651	134	-854	-327	-113	-755	-329
13656	298	-946	-188	-113	-755	-329
13661	411	-1043	-27	-113	-755	-329
13666	523	-1192	103	-113	-755	-329
13671	620	-1294	230	-113	-755	-329
13676	684	-1334	283	240	570	2265
13681	694	-1359	281	240	570	2265
13686	670	-1324	212	240	570	2265
13691	637	-1171	128	240	570	2265
13696	581	-971	32	240	570	2265
13701	484	-852	-79	240	570	2265
13706	333	-844	-180	426	737	3416
13711	40	-851	-200	426	737	3416
13716	-388	-680	-110	426	737	3416
13721	-996	-110	43	426	737	3416
13726	-1802	818	165	426	737	3416
13731	-2572	1668	269	426	737	3416
13736	-3324	2180	297	475	1120	148
13741	-4131	2278	305	475	1120	148
13746	-4877	2398	235	475	1120	148
13751	-5313	2626	89	475	1120	148
13756	-5520	2792	-145	475	1120	148
13761	-5530	2668	-353	475	1120	148
13766	-5317	2253	-465	471	-690	-1253
13771	-4977	1767	-510	471	-690	-1253
13776	-4629	1386	-503	471	-690	-1253
13781	-4277	1083	-452	471	-690	-1253
13786	-4012	929	-343	471	-690	-1253
13791	-3719	933	-222	471	-690	-1253
13796	-3419	959	-131	471	-690	-1253
13801	-3110	968	-67	-523	-702	-2422
13806	-2818	993	-9	-523	-702	-2422
13811	-2473	962	54	-523	-702	-2422
13816	-2092	772	82	-523	-702	-2422
13821	-1808	546	106	-523	-702	-2422
13826	-1500	304	100	-523	-702	-2422
13831	-1188	120	83	-89	-20	-1504
13836	-905	-14	4	-89	-20	-1504
13841	-648	-197	-27	-89	-20	-1504
13846	-442	-379	-53	-89	-20	-1504
13851	-269	-534	-102	-89	-20	-1504
13856	-93	-617	-163	-89	-20	-1504
13861	115	-674	-189	-1263	273	860
13866	356	-796	-193	-1263	273	860
13871	503	-959	-186	-1263	273	860
13876	695	-1180	-102	-1263	273	860
13881	750	-1391	-42	-1263	273	860
13886	730	-1447	-72	-1263	273	860
13891	736	-1396	-192	572	-48	4590
13896	733	-1335	-317	572	-48	4590
13901	680	-1389	-389	572	-48	4590
13906	467	-1507	-428	572	-48	4590
13911	226	-1386	-345	572	-48	4590
13916	-73	-970	-134	572	-48	4590
13921	-728	-114	155	-865	332	1509
13926	-1585	926	436	-865	332	1509
13931	-2397	1819	618	-865	332	1509
13936	-3272	2580	556	-865	332	1509
13941	-4020	3096	160	-865	332	1509
13946	-4643	3361	-444	-865	332	1509
13951	-5050	3488	-1014	-865	332	1509
13956	-5272	3470	-1347	355	-452	-1746
13961	-5358	3289	-1315	355	-452	-1746
13966	-5280	2956	-866	355	-452	-1746
13971	-5033	2495	-301	355	-452	-1746
13976	-4681	2079	-1	355	-452	-1746
13981	-4234	1634	226	355	-452	-1746
13986	-3878	1236	333	-390	-571	-2663
13991	-3511	1011	330	-390	-571	-2663
13996	-3162	939	255	-390	-571	-2663
14001	-2860	855	210	-390	-571	-2663
14006	-2538	734	143	-390	-571	-2663
14011	-2217	559	74	-390	-571	-2663
14016	-1892	390	-21	-126	-805	-2765
14021	-1624	264	-59	-126	-805	-2765
14026	-1348	77	-113	-126	-805	-2765
14031	-1086	-26	-124	-126	-805	-2765
14036	-836	-73	-153	-126	-805	-2765
14041	-625	-144	-148	-126	-805	-2765
14046	-415	-290	-116	87	-212	-445
14051	-217	-553	-51	87	-212	-445
14056	-81	-816	27	87	-212	-445
14061	44	-1012	86	87	-212	-445
14066	164	-1086	110	87	-212	-445
14071	281	-1121	157	87	-212	-445
14076	351	-1145	234	-29	669	2502
14081	345	-1064	244	-29	669	2502
14086	362	-1040	251	-29	669	2502
14091	360	-1032	223	-29	669	2502
14096	362	-1030	141	-29	669	2502
14101	356	-1023	41	-29	669	2502
14106	294	-1085	-108	-29	669	2502
14111	121	-1182	-191	711	1165	5324
14116	-180	-1069	-169	711	1165	5324
14121	-590	-727	-38	711	1165	5324
14126	-1126	-324	181	711	1165	5324
14131	-1811	453	439	711	1165	5324
14136	-2486	1411	522	711	1165	5324
14141	-3262	2674	321	-1024	-1576	-616
14146	-4097	3725	-153	-1024	-1576	-616
14151	-4827	4248	-610	-1024	-1576	-616
14156	-5289	4374	-924	-1024	-1576	-616
14161	-5492	4199	-1022	-1024	-1576	-616
14166	-5327	3590	-683	-1024	-1576	-616
14171	-5121	2838	-38	-100	-126	-2679
14176	-4825	2195	463	-100	-126	-2679
14181	-4415	1819	747	-100	-126	-2679
14186	-3995	1514	810	-100	-126	-2679
14191	-3603	1254	675	-100	-126	-2679
14196	-3195	1033	463	-100	-126	-2679
14201	-2883	866	281	-549	-790	-2591
14206	-2546	686	146	-549	-790	-2591
14211	-2229	578	81	-549	-790	-2591
14216	-1954	469	62	-549	-790	-2591
14221	-1688	291	65	-549	-790	-2591
14226	-1509	159	112	-549	-790	-2591
14231	-1312	53	140	-203	-171	-1806
14236	-1110	-12	179	-203	-171	-1806
14241	-919	-148	170	-203	-171	-1806
14246	-766	-277	139	-203	-171	-1806
14251	-588	-385	94	-203	-171	-1806
14256	-416	-508	70	-203	-171	-1806
14261	-258	-650	63	-203	-171	-1806
14266	-113	-808	53	-268	426	403
14271	3	-927	91	-268	426	403
14276	99	-1043	146	-268	426	403
14281	179	-1126	137	-268	426	403
14286	262	-1151	80	-268	426	403
14291	322	-1149	38	-268	426	403
14296	375	-1157	32	169	366	3636
14301	413	-1217	26	169	366	3636
14306	392	-1286	-30	169	366	3636
14311	398	-1339	-78	169	366	3636
14316	368	-1425	-95	169	366	3636
14321	180	-1344	-90	169	366	3636
14326	-16	-1055	13	1154	1986	4957
14331	-276	-768	131	1154	1986	4957
14336	-578	-546	261	1154	1986	4957
14341	-1160	192	550	1154	1986	4957
14346	-1914	1412	869	1154	1986	4957
14351	-2699	2643	1017	1154	1986	4957
14356	-3309	3375	764	78	17	548
14361	-3867	3714	277	78	17	548
14366	-4319	3869	-347	78	17	548
14371	-4444	3763	-914	78	17	548
14376	-4512	3642	-1260	78	17	548
14381	-4423	3470	-1311	78	17	548
14386	-4306	3328	-1080	-367	-1013	-2378
14391	-4121	3097	-645	-367	-1013	-2378
14396	-3853	2629	-214	-367	-1013	-2378
14401	-3540	2144	5	-367	-1013	-2378
14406	-3232	1740	129	-367	-1013	-2378
14411	-2929	1336	217	-367	-1013	-2378
14416	-2685	991	262	-367	-1013	-2378
14421	-2474	757	279	-992	-835	-1656
14426	-2273	647	270	-992	-835	-1656
14431	-2121	600	273	-992	-835	-1656
14436	-1969	562	261	-992	-835	-1656
14441	-1823	484	262	-992	-835	-1656
14446	-1726	426	221	-992	-835	-1656
14451	-1647	377	183	-531	112	-1481
14456	-1584	378	171	-531	112	-1481
14461	-1514	399	116	-531	112	-1481
14466	-1446	373	89	-531	112	-1481
14471	-1373	329	30	-531	112	-1481
14476	-1325	273	-26	-531	112	-1481
14481	-1292	243	-90	-189	413	-1002
14486	-1258	202	-104	-189	413	-1002
14491	-1240	163	-150	-189	413	-1002
14496	-1236	130	-159	-189	413	-1002
14501	-1213	53	-167	-189	413	-1002
14506	-1214	-13	-173	-189	413	-1002
14511	-1277	-64	-148	11	422	-329
14516	-1342	-72	-125	11	422	-329
14521	-1398	-69	-92	11	422	-329
14526	-1437	-74	-79	11	422	-329
14531	-1469	-116	-65	11	422	-329
14536	-1498	-148	-74	11	422	-329
14541	-1518	-175	-54	295	252	355
14546	-1524	-242	-52	295	252	355
14551	-1561	-313	-45	295	252	355
14556	-1594	-374	-59	295	252	355
14561	-1627	-425	-84	295	252	355
14566	-1666	-438	-89	295	252	355
14571	-1719	-371	-61	295	252	355
14576	-1764	-272	3	81	174	260
14581	-1838	-157	50	81	174	260
14586	-1918	-76	122	81	174	260
14591	-1999	-50	172	81	174	260
14596	-2040	-50	183	81	174	260
14601	-2062	-86	172	81	174	260
14606	-2100	-97	170	410	517	739
14611	-2129	-90	134	410	517	739
14616	-2173	-43	113	410	517	739
14621	-2231	73	84	410	517	739
14626	-2288	225	76	410	517	739
14631	-2347	364	65	410	517	739
14636	-2388	490	38	205	309	31
14641	-2373	521	24	205	309	31
14646	-2335	450	-9	205	309	31
14651	-2298	343	-51	205	309	31
14656	-2276	274	-75	205	309	31
14661	-2224	231	-128	205	309	31
14666	-2199	219	-133	-27	-54	9
14671	-2186	250	-125	-27	-54	9
14676	-2185	289	-99	-27	-54	9
14681	-2163	312	-67	-27	-54	9
14686	-2150	311	-46	-27	-54	9
14691	-2136	293	-16	-27	-54	9
14696	-2143	287	-13	2	185	-120
14701	-2130	278	10	2	185	-120
14706	-2136	294	11	2	185	-120
14711	-2158	329	11	2	185	-120
14716	-2162	361	-16	2	185	-120
14721	-2149	355	-50	2	185	-120
14726	-2117	342	-74	2	185	-120
14731	-2106	308	-102	-84	34	-152
14736	-2081	258	-102	-84	34	-152
14741	-2049	231	-128	-84	34	-152
14746	-2038	228	-113	-84	34	-152
14751	-2022	232	-96	-84	34	-152
14756	-2027	235	-87	-84	34	-152
14761	-2029	232	-102	1	128	34
14766	-2031	213	-97	1	128	34
14771	-2037	194	-84	1	128	34
14776	-2030	171	-96	1	128	34
14781	-2027	156	-110	1	128	34
14786	-2032	142	-127	1	128	34
14791	-2030	140	-135	38	221	-4
14796	-2017	171	-119	38	221	-4
14801	-2030	204	-105	38	221	-4
14806	-2038	234	-101	38	221	-4
14811	-2044	238	-122	38	221	-4
14816	-2050	232	-128	38	221	-4
14821	-2045	210	-157	39	230	50
14826	-2045	207	-173	39	230	50
14831	-2052	189	-184	39	230	50
14836	-2061	203	-169	39	230	50
14841	-2064	183	-176	39	230	50
14846	-2061	173	-176	39	230	50
14851	-2067	163	-144	290	701	-101
14856	-2076	182	-129	290	701	-101
14861	-2083	188	-117	290	701	-101
14866	-2087	199	-90	290	701	-101
14871	-2110	216	-76	290	701	-101
14876	-2111	197	-64	290	701	-101
14881	-2106	196	-74	290	701	-101
14886	-2110	183	-82	427	1332	-106
14891	-2106	156	-117	427	1332	-106
14896	-2098	168	-177	427	1332	-106
14901	-2093	154	-229	427	1332	-106
14906	-2078	154	-286	427	1332	-106
14911	-2059	151	-378	427	1332	-106
14916	-2037	146	-457	-6	476	-118
14921	-2022	153	-553	-6	476	-118
14926	-2016	168	-635	-6	476	-118
14931	-1994	167	-691	-6	476	-118
14936	-1978	166	-734	-6	476	-118
14941	-1963	153	-799	-6	476	-118
14946	-1952	144	-836	-128	-264	-23
14951	-1944	137	-828	-128	-264	-23
14956	-1945	138	-810	-128	-264	-23
14961	-1941	167	-784	-128	-264	-23
14966	-1951	174	-683	-128	-264	-23
14971	-1948	171	-630	-128	-264	-23
14976	-1963	183	-558	42	-142	-16
14981	-1959	193	-535	42	-142	-16
14986	-1963	189	-494	42	-142	-16
14991	-1968	187	-454	42	-142	-16
14996	-1968	163	-426	42	-142	-16
15001	-1996	174	-386	42	-142	-16
15006	-1992	190	-394	-199	-179	-82
15011	-1991	196	-396	-199	-179	-82
15016	-2000	195	-415	-199	-179	-82
15021	-2004	204	-429	-199	-179	-82
15026	-2008	211	-441	-199	-179	-82
15031	-2015	228	-433	-199	-179	-82
15036	-2024	220	-421	-199	-179	-82
15041	-2029	197	-418	4	75	3
15046	-2044	161	-393	4	75	3
15051	-2024	135	-362	4	75	3
15056	-2037	129	-349	4	75	3
15061	-2062	150	-333	4	75	3
15066	-2093	179	-304	4	75	3
15071	-2108	200	-330	214	522	-48
15076	-2113	222	-331	214	522	-48
15081	-2115	206	-355	214	522	-48
15086	-2123	182	-376	214	522	-48
15091	-2123	191	-440	214	522	-48
15096	-2101	170	-527	214	522	-48
15101	-2081	178	-596	11	-83	31
15106	-2074	161	-639	11	-83	31
15111	-2069	150	-687	11	-83	31
15116	-2033	134	-734	11	-83	31
15121	-2017	132	-744	11	-83	31
15126	-1989	133	-732	11	-83	31
15131	-1981	133	-723	-254	-590	-137
15136	-1967	150	-692	-254	-590	-137
15141	-1955	144	-639	-254	-590	-137
15146	-1953	144	-637	-254	-590	-137
15151	-1944	126	-641	-254	-590	-137
15156	-1948	122	-581	-254	-590	-137
15161	-1955	128	-494	46	-35	107
15166	-1939	123	-432	46	-35	107
15171	-1928	121	-365	46	-35	107
15176	-1923	106	-325	46	-35	107
15181	-1917	91	-306	46	-35	107
15186	-1917	88	-338	46	-35	107
15191	-1925	93	-367	46	-35	107
15196	-1949	90	-421	22	-366	157
15201	-1964	104	-480	22	-366	157
15206	-1981	129	-551	22	-366	157
15211	-2009	152	-543	22	-366	157
15216	-2041	176	-511	22	-366	157
15221	-2076	228	-436	22	-366	157
15226	-2111	269	-381	-74	-9	-17
15231	-2131	286	-296	-74	-9	-17
15236	-2167	290	-272	-74	-9	-17
15241	-2157	284	-255	-74	-9	-17
15246	-2152	271	-220	-74	-9	-17
15251	-2131	250	-234	-74	-9	-17
15256	-2113	241	-246	-158	56	-33
15261	-2100	219	-307	-158	56	-33
15266	-2066	214	-334	-158	56	-33
15271	-2048	204	-369	-158	56	-33
15276	-2031	192	-402	-158	56	-33
15281	-2027	187	-411	-158	56	-33
15286	-2027	185	-425	-106	65	-52
15291	-2017	199	-445	-106	65	-52
15296	-2014	197	-441	-106	65	-52
15301	-1993	196	-437	-106	65	-52
15306	-1983	159	-457	-106	65	-52
15311	-1959	145	-462	-106	65	-52
15316	-1949	125	-469	-90	-39	63
15321	-1929	117	-483	-90	-39	63
15326	-1924	104	-500	-90	-39	63
15331	-1926	103	-503	-90	-39	63
15336	-1936	105	-483	-90	-39	63
15341	-1944	112	-457	-90	-39	63
15346	-1962	134	-449	-90	-39	63
15351	-1981	171	-415	-257	-189	-38
15356	-2012	189	-381	-257	-189	-38
15361	-2008	209	-384	-257	-189	-38
15366	-2017	200	-423	-257	-189	-38
15371	-1988	187	-452	-257	-189	-38
15376	-1974	127	-437	-257	-189	-38
15381	-2012	104	-408	-198	-302	198
15386	-2005	61	-412	-198	-302	198
15391	-1982	85	-382	-198	-302	198
15396	-1997	103	-352	-198	-302	198
15401	-2026	100	-295	-198	-302	198
15406	-2076	133	-231	-198	-302	198
15411	-2102	189	-217	43	208	97
15416	-2128	254	-214	43	208	97
15421	-2147	314	-228	43	208	97
15426	-2128	360	-291	43	208	97
15431	-2109	352	-391	43	208	97
15436	-2103	319	-473	43	208	97
15441	-2084	294	-552	-48	-244	61
15446	-2072	283	-585	-48	-244	61
15451	-2064	285	-546	-48	-244	61
15456	-2070	287	-475	-48	-244	61
15461	-2074	296	-417	-48	-244	61
15466	-2069	275	-341	-48	-244	61
15471	-2059	255	-310	-25	104	-98
15476	-2057	261	-263	-25	104	-98
15481	-2064	290	-241	-25	104	-98
15486	-2060	310	-242	-25	104	-98
15491	-2062	295	-267	-25	104	-98
15496	-2064	284	-320	-25	104	-98
15501	-2059	257	-361	-25	104	-98
15506	-2043	255	-378	-108	-125	12
15511	-2039	247	-381	-108	-125	12
15516	-2036	253	-405	-108	-125	12
15521	-2045	248	-385	-108	-125	12
15526	-2038	240	-383	-108	-125	12
15531	-2030	238	-364	-108	-125	12
15536	-2041	237	-345	-97	-49	-35
15541	-2034	232	-337	-97	-49	-35
15546	-2031	228	-323	-97	-49	-35
15551	-2020	230	-330	-97	-49	-35
15556	-2014	215	-363	-97	-49	-35
15561	-2004	215	-387	-97	-49	-35
15566	-1991	187	-392	-126	-339	11
15571	-1984	176	-409	-126	-339	11
15576	-1969	163	-414	-126	-339	11
15581	-1963	172	-407	-126	-339	11
15586	-1959	180	-381	-126	-339	11
15591	-1945	180	-321	-126	-339	11
15596	-1938	178	-288	-221	-292	119
15601	-1953	189	-250	-221	-292	119
15606	-1934	179	-229	-221	-292	119
15611	-1930	184	-205	-221	-292	119
15616	-1920	175	-192	-221	-292	119
15621	-1909	154	-246	-221	-292	119
15626	-1888	138	-274	-138	-269	680
15631	-1861	106	-262	-138	-269	680
15636	-1853	63	-261	-138	-269	680
15641	-1819	39	-220	-138	-269	680
15646	-1811	-6	-135	-138	-269	680
15651	-1905	-9	0	-138	-269	680
15656	-2060	86	103	-138	-269	680
15661	-2215	227	103	378	-38	418
15666	-2434	376	43	378	-38	418
15671	-2664	436	-60	378	-38	418
15676	-2945	552	-280	378	-38	418
15681	-3198	731	-555	378	-38	418
15686	-3414	954	-696	378	-38	418
15691	-3597	1208	-746	332	-631	-1649
15696	-3756	1450	-638	332	-631	-1649
15701	-3838	1647	-455	332	-631	-1649
15706	-3844	1702	-273	332	-631	-1649
15711	-3717	1634	-134	332	-631	-1649
15716	-3505	1456	-80	332	-631	-1649
15721	-3206	1214	-67	-104	-598	-2734
15726	-2902	1023	-45	-104	-598	-2734
15731	-2532	846	-29	-104	-598	-2734
15736	-2094	646	-37	-104	-598	-2734
15741	-1631	440	31	-104	-598	-2734
15746	-1072	133	107	-104	-598	-2734
15751	-492	-195	195	-1236	670	-738
15756	15	-454	283	-1236	670	-738
15761	360	-756	403	-1236	670	-738
15766	704	-980	472	-1236	670	-738
15771	966	-1060	423	-1236	670	-738
15776	1201	-1124	224	-1236	670	-738
15781	1378	-1186	-63	-617	-1777	3516
15786	1437	-1268	-366	-617	-1777	3516
15791	1361	-1470	-658	-617	-1777	3516
15796	1232	-1623	-858	-617	-1777	3516
15801	1129	-1572	-874	-617	-1777	3516
15806	985	-1301	-678	-617	-1777	3516
15811	578	-714	-198	-617	-1777	3516
15816	-151	-124	438	985	3348	2587
15821	-1182	533	1042	985	3348	2587
15826	-2430	1346	1618	985	3348	2587
15831	-3677	2291	1942	985	3348	2587
15836	-4806	3193	1509	985	3348	2587
15841	-5577	3609	142	985	3348	2587
15846	-6027	3645	-1470	195	-1821	-2107
15851	-6327	3467	-2627	195	-1821	-2107
15856	-6338	3073	-3197	195	-1821	-2107
15861	-6057	2582	-2831	195	-1821	-2107
15866	-5602	2016	-1911	195	-1821	-2107
15871	-5114	1585	-944	195	-1821	-2107
15876	-4672	1396	-273	22	-401	-3432
15881	-4149	1263	169	22	-401	-3432
15886	-3593	1087	353	22	-401	-3432
15891	-3002	838	342	22	-401	-3432
15896	-2489	539	313	22	-401	-3432
15901	-2017	188	343	22	-401	-3432
15906	-1574	138	278	-227	-633	-2317
15911	-1019	126	152	-227	-633	-2317
15916	-444	-95	5	-227	-633	-2317
15921	41	-457	-126	-227	-633	-2317
15926	463	-992	-153	-227	-633	-2317
15931	821	-1399	-131	-227	-633	-2317
15936	1157	-1626	-80	-569	-257	1243
15941	1378	-1768	40	-569	-257	1243
15946	1532	-1856	201	-569	-257	1243
15951	1675	-1647	312	-569	-257	1243
15956	1760	-1413	435	-569	-257	1243
15961	1755	-1392	522	-569	-257	1243
15966	1695	-1509	510	-569	-257	1243
15971	1594	-1553	443	126	450	5315
15976	1479	-1445	304	126	450	5315
15981	1273	-1242	140	126	450	5315
15986	885	-1045	4	126	450	5315
15991	259	-649	69	126	450	5315
15996	-821	213	361	126	450	5315
16001	-2186	1493	717	524	1549	1568
16006	-3607	2793	866	524	1549	1568
16011	-4737	3299	592	524	1549	1568
16016	-5711	3043	-157	524	1549	1568
16021	-6410	2713	-1051	524	1549	1568
16026	-6990	2766	-1782	524	1549	1568
16031	-7224	2967	-2000	12	-974	-2721
16036	-7109	3094	-1716	12	-974	-2721
16041	-6676	3038	-1203	12	-974	-2721
16046	-5934	2678	-635	12	-974	-2721
16051	-5066	1948	-163	12	-974	-2721
16056	-4338	1322	151	12	-974	-2721
16061	-3583	898	369	-29	-339	-2667
16066	-2941	748	438	-29	-339	-2667
16071	-2382	601	381	-29	-339	-2667
16076	-1908	420	239	-29	-339	-2667
16081	-1413	139	41	-29	-339	-2667
16086	-988	-108	-138	-29	-339	-2667
16091	-603	-248	-281	-253	51	-1290
16096	-278	-318	-313	-253	51	-1290
16101	-7	-355	-273	-253	51	-1290
16106	276	-452	-195	-253	51	-1290
16111	525	-560	-139	-253	51	-1290
16116	787	-639	-118	-253	51	-1290
16121	1038	-773	-187	-253	51	-1290
16126	1272	-960	-280	-210	868	1697
16131	1445	-1160	-325	-210	868	1697
16136	1506	-1195	-374	-210	868	1697
16141	1525	-1096	-402	-210	868	1697
16146	1485	-1023	-440	-210	868	1697
16151	1395	-1000	-486	-210	868	1697
16156	1266	-1068	-595	-367	-33	4140
16161	945	-1041	-763	-367	-33	4140
16166	504	-854	-813	-367	-33	4140
16171	-141	-452	-679	-367	-33	4140
16176	-954	178	-388	-367	-33	4140
16181	-1860	812	-84	-367	-33	4140
16186	-2811	1235	-1	-534	270	1829
16191	-3571	1513	-95	-534	270	1829
16196	-4457	1921	-243	-534	270	1829
16201	-5342	2661	-458	-534	270	1829
16206	-6001	3386	-616	-534	270	1829
16211	-6458	3808	-625	-534	270	1829
16216	-6763	4005	-496	581	255	-2818
16221	-6702	3923	-332	581	255	-2818
16226	-6338	3568	-225	581	255	-2818
16231	-5793	2987	-165	581	255	-2818
16236	-5166	2443	-146	581	255	-2818
16241	-4445	1939	-161	581	255	-2818
16246	-3714	1580	-181	-540	-1109	-3287
16251	-3051	1306	-219	-540	-1109	-3287
16256	-2500	1047	-229	-540	-1109	-3287
16261	-1909	692	-227	-540	-1109	-3287
16266	-1354	272	-175	-540	-1109	-3287
16271	-915	-124	-128	-540	-1109	-3287
16276	-530	-305	-163	-540	-1109	-3287
16281	-191	-292	-169	-817	-1275	-2091
16286	169	-347	-182	-817	-1275	-2091
16291	539	-491	-247	-817	-1275	-2091
16296	857	-777	-249	-817	-1275	-2091
16301	1084	-1118	-243	-817	-1275	-2091
16306	1345	-1502	-242	-817	-1275	-2091
16311	1593	-1893	-85	463	680	3066
16316	1637	-2010	-17	463	680	3066
16321	1700	-1909	50	463	680	3066
16326	1704	-1819	119	463	680	3066
16331	1598	-1744	154	463	680	3066
16336	1462	-1587	165	463	680	3066
16341	1318	-1375	149	-901	238	4282
16346	1060	-992	153	-901	238	4282
16351	607	-463	40	-901	238	4282
16356	-38	241	-35	-901	238	4282
16361	-948	918	-87	-901	238	4282
16366	-2250	1676	-151	-901	238	4282
16371	-3559	2510	-46	1133	125	-136
16376	-4975	3441	-55	1133	125	-136
16381	-6074	3959	-523	1133	125	-136
16386	-6721	4040	-1182	1133	125	-136
16391	-6912	3784	-1690	1133	125	-136
16396	-6785	3296	-1841	1133	125	-136
16401	-6392	2657	-1577	84	-1103	-2229
16406	-5780	1903	-925	84	-1103	-2229
16411	-5208	1247	-272	84	-1103	-2229
16416	-4707	916	190	84	-1103	-2229
16421	-4199	834	521	84	-1103	-2229
16426	-3723	872	617	84	-1103	-2229
16431	-3246	867	624	84	-1103	-2229
16436	-2775	850	604	-187	206	-2721
16441	-2345	776	532	-187	206	-2721
16446	-1857	635	425	-187	206	-2721
16451	-1372	419	236	-187	206	-2721
16456	-941	195	11	-187	206	-2721
16461	-561	18	-154	-187	206	-2721
16466	-160	-200	-370	237	-270	-886
16471	189	-443	-506	237	-270	-886
16476	497	-682	-531	237	-270	-886
16481	742	-820	-550	237	-270	-886
16486	920	-824	-530	237	-270	-886
16491	1151	-889	-468	237	-270	-886
16496	1309	-1133	-417	371	-266	3834
16501	1369	-1440	-317	371	-266	3834
16506	1405	-1689	-168	371	-266	3834
16511	1308	-1808	-29	371	-266	3834
16516	1129	-1595	121	371	-266	3834
16521	932	-1268	374	371	-266	3834
16526	596	-818	604	-653	1740	2565
16531	158	-259	824	-653	1740	2565
16536	-536	457	1018	-653	1740	2565
16541	-1593	1403	1018	-653	1740	2565
16546	-2847	2436	859	-653	1740	2565
16551	-3968	3145	544	-653	1740	2565
16556	-5103	3488	-45	242	-848	-1674
16561	-5807	3425	-727	242	-848	-1674
16566	-6184	3284	-1380	242	-848	-1674
16571	-6330	3143	-1912	242	-848	-1674
16576	-6218	3023	-2115	242	-848	-1674
16581	-5824	2688	-1912	242	-848	-1674
16586	-5324	2019	-1310	242	-848	-1674
16591	-4789	1454	-710	62	-1105	-2893
16596	-4255	1158	-314	62	-1105	-2893
16601	-3718	947	-52	62	-1105	-2893
16606	-3235	787	99	62	-1105	-2893
16611	-2758	645	186	62	-1105	-2893
16616	-2352	507	216	62	-1105	-2893
16621	-2013	413	229	52	-414	-2616
16626	-1633	341	212	52	-414	-2616
16631	-1263	184	225	52	-414	-2616
16636	-925	-13	188	52	-414	-2616
16641	-606	-158	151	52	-414	-2616
16646	-264	-340	129	52	-414	-2616
16651	73	-487	86	-558	-307	-344
16656	382	-577	139	-558	-307	-344
16661	646	-639	100	-558	-307	-344
16666	884	-762	63	-558	-307	-344
16671	1103	-957	64	-558	-307	-344
16676	1334	-1263	134	-558	-307	-344
16681	1414	-1634	188	-56	1051	3433
16686	1372	-1697	269	-56	1051	3433
16691	1299	-1466	399	-56	1051	3433
16696	1196	-1177	499	-56	1051	3433
16701	1025	-980	516	-56	1051	3433
16706	877	-954	394	-56	1051	3433
16711	611	-872	238	-71	2335	3581
16716	145	-512	147	-71	2335	3581
16721	-610	169	130	-71	2335	3581
16726	-1652	847	196	-71	2335	3581
16731	-2740	1459	390	-71	2335	3581
16736	-3881	2447	378	-71	2335	3581
16741	-4903	3600	-183	-71	2335	3581
16746	-5721	4246	-935	487	-885	-1564
16751	-6235	4168	-1714	487	-885	-1564
16756	-6454	3843	-2329	487	-885	-1564
16761	-6226	3281	-2633	487	-885	-1564
16766	-5754	2497	-2389	487	-885	-1564
16771	-5181	1667	-1724	487	-885	-1564
16776	-4643	1158	-1065	815	-742	-2528
16781	-4122	813	-461	815	-742	-2528
16786	-3735	678	-37	815	-742	-2528
16791	-3379	696	226	815	-742	-2528
16796	-2988	698	324	815	-742	-2528
16801	-2633	575	323	815	-742	-2528
16806	-2250	375	294	7	-758	-2103
16811	-1873	159	232	7	-758	-2103
16816	-1534	-13	170	7	-758	-2103
16821	-1229	-95	84	7	-758	-2103
16826	-874	-203	66	7	-758	-2103
16831	-537	-315	33	7	-758	-2103
16836	-189	-399	76	-409	191	84
16841	133	-468	161	-409	191	84
16846	373	-599	248	-409	191	84
16851	589	-775	310	-409	191	84
16856	843	-992	404	-409	191	84
16861	1103	-1385	574	-409	191	84
16866	1195	-1615	738	348	818	3490
16871	1217	-1498	642	348	818	3490
16876	1177	-1097	316	348	818	3490
16881	1064	-892	22	348	818	3490
16886	882	-835	-233	348	818	3490
16891	657	-951	-259	348	818	3490
16896	258	-736	-131	348	818	3490
16901	-312	-219	55	651	888	1911
16906	-1130	357	-86	651	888	1911
16911	-2194	1125	-429	651	888	1911
16916	-3541	2436	-876	651	888	1911
16921	-4751	3648	-1270	651	888	1911
16926	-5687	4023	-1301	651	888	1911
16931	-6330	3686	-1117	234	-1275	-1927
16936	-6505	3341	-1132	234	-1275	-1927
16941	-6372	3002	-1509	234	-1275	-1927
16946	-6020	2493	-1702	234	-1275	-1927
16951	-5474	1801	-1430	234	-1275	-1927
16956	-4954	1268	-980	234	-1275	-1927
16961	-4394	954	-396	-236	-658	-3044
16966	-3841	764	85	-236	-658	-3044
16971	-3305	626	431	-236	-658	-3044
16976	-2766	449	599	-236	-658	-3044
16981	-2292	271	602	-236	-658	-3044
16986	-1766	122	491	-236	-658	-3044
16991	-1240	-98	345	-451	165	-1426
16996	-767	-359	354	-451	165	-1426
17001	-453	-503	419	-451	165	-1426
17006	-165	-570	357	-451	165	-1426
17011	108	-684	143	-451	165	-1426
17016	322	-851	-105	-451	165	-1426
17021	528	-919	-331	-1053	35	343
17026	645	-742	-478	-1053	35	343
17031	774	-638	-463	-1053	35	343
17036	803	-551	-349	-1053	35	343
17041	827	-481	-172	-1053	35	343
17046	838	-566	-37	-1053	35	343
17051	833	-791	84	-1053	35	343
17056	825	-945	27	-22	1122	3494
17061	703	-806	-120	-22	1122	3494
17066	499	-632	-261	-22	1122	3494
17071	141	-650	-174	-22	1122	3494
17076	-334	-703	93	-22	1122	3494
17081	-1000	-547	371	-22	1122	3494
17086	-1945	100	456	-611	-260	717
17091	-3067	1236	222	-611	-260	717
17096	-4120	2088	-523	-611	-260	717
17101	-5287	2483	-1578	-611	-260	717
17106	-6219	2459	-2558	-611	-260	717
17111	-6902	2268	-2989	-611	-260	717
17116	-7265	2239	-2593	1412	-142	-2462
17121	-7329	2369	-1670	1412	-142	-2462
17126	-6934	2260	-1017	1412	-142	-2462
17131	-6190	1626	-888	1412	-142	-2462
17136	-5395	1053	-1178	1412	-142	-2462
17141	-4633	751	-1404	1412	-142	-2462
17146	-3856	493	-1461	547	-1543	-3148
17151	-3135	288	-1225	547	-1543	-3148
17156	-2433	218	-702	547	-1543	-3148
17161	-1814	198	-137	547	-1543	-3148
17166	-1154	281	408	547	-1543	-3148
17171	-546	155	901	547	-1543	-3148
17176	-58	-150	1096	52	8	-345
17181	392	-433	1008	52	8	-345
17186	768	-622	736	52	8	-345
17191	1088	-848	495	52	8	-345
17196	1341	-1142	473	52	8	-345
17201	1469	-1360	496	52	8	-345
17206	1529	-1438	513	52	8	-345
17211	1569	-1397	358	-831	-252	2631
17216	1570	-1304	184	-831	-252	2631
17221	1553	-1212	93	-831	-252	2631
17226	1451	-1038	114	-831	-252	2631
17231	1330	-783	144	-831	-252	2631
17236	1156	-567	163	-831	-252	2631
17241	934	-514	165	417	1514	4663
17246	665	-553	74	417	1514	4663
17251	251	-624	79	417	1514	4663
17256	-311	-589	130	417	1514	4663
17261	-1062	-209	191	417	1514	4663
17266	-2102	783	288	417	1514	4663
17271	-3269	2108	189	-162	-744	9
17276	-4296	2922	-331	-162	-744	9
17281	-5333	3167	-1125	-162	-744	9
17286	-6224	2950	-1921	-162	-744	9
17291	-6924	2750	-2601	-162	-744	9
17296	-7230	2707	-2569	-162	-744	9
17301	-7199	2505	-1942	702	-136	-3108
17306	-6875	2088	-1090	702	-136	-3108
17311	-6288	1629	-456	702	-136	-3108
17316	-5567	1067	-132	702	-136	-3108
17321	-4967	640	-21	702	-136	-3108
17326	-4359	411	-65	702	-136	-3108
17331	-3775	295	-139	217	-871	-3197
17336	-3226	217	-196	217	-871	-3197
17341	-2700	202	-255	217	-871	-3197
17346	-2126	192	-180	217	-871	-3197
17351	-1590	151	-122	217	-871	-3197
17356	-1080	27	-1	217	-871	-3197
