time	accelerometer_x	accelerometer_y	accelerometer_z	gyroscope_x	gyroscope_y	gyroscope_z
1416	-1552	-593	1136	194	-122	68
1421	-1752	-203	1146	194	-122	68
1426	-1757	-563	1332	194	-122	68
1431	-1639	-711	1440	680	-310	152
1436	-1733	-585	1202	680	-310	152
1441	-1648	-613	911	680	-310	152
1446	-1594	-625	713	680	-310	152
1451	-1586	-558	833	680	-310	152
1456	-1705	-191	909	680	-310	152
1461	-1602	-324	565	409	-300	67
1466	-1523	-542	943	409	-300	67
1471	-1518	-438	1511	409	-300	67
1476	-1831	-188	1268	409	-300	67
1481	-1764	-478	1293	409	-300	67
1486	-1545	-361	1138	409	-300	67
1491	-1575	-530	955	1367	-653	702
1496	-1571	-509	789	1367	-653	702
1501	-1519	-442	796	1367	-653	702
1506	-1491	-421	786	1367	-653	702
1511	-1465	-415	790	1367	-653	702
1516	-1460	-373	1051	1367	-653	702
1521	-1452	-250	1283	1515	-253	509
1526	-1498	-149	1381	1515	-253	509
1531	-1415	-118	1351	1515	-253	509
1536	-1443	-39	1247	1515	-253	509
1541	-1521	13	1205	1515	-253	509
1546	-1564	132	1227	1515	-253	509
1551	-1548	113	1096	1515	-253	509
1556	-1660	138	974	1210	-274	449
1561	-1655	157	1275	1210	-274	449
1566	-1644	121	1381	1210	-274	449
1571	-1617	207	1417	1210	-274	449
1576	-1570	155	1284	1210	-274	449
1581	-1561	23	1266	1210	-274	449
1586	-1525	-25	1115	1149	-303	686
1591	-1503	-29	1046	1149	-303	686
1596	-1496	51	1088	1149	-303	686
1601	-1488	270	1202	1149	-303	686
1606	-1520	369	1320	1149	-303	686
1611	-1490	335	1276	1149	-303	686
1616	-1494	258	1210	2264	-160	1156
1621	-1457	249	1140	2264	-160	1156
1626	-1525	329	1053	2264	-160	1156
1631	-1389	90	1184	2264	-160	1156
1636	-1415	-28	1101	2264	-160	1156
1641	-1499	140	1034	2264	-160	1156
1646	-1379	479	1121	1983	-98	1136
1651	-1517	554	1378	1983	-98	1136
1656	-1516	1247	1329	1983	-98	1136
1661	-1461	683	1632	1983	-98	1136
1666	-1276	628	1224	1983	-98	1136
1671	-1239	655	993	1983	-98	1136
1676	-1221	667	976	2333	301	757
1681	-1306	941	1056	2333	301	757
1686	-1278	751	1223	2333	301	757
1691	-1219	901	765	2333	301	757
1696	-1039	64	424	2333	301	757
1701	-1194	2168	1239	2333	301	757
1706	-1454	1619	1587	2333	301	757
1711	-1593	1069	949	2611	741	220
1716	-1178	1120	926	2611	741	220
1721	-1295	1324	1072	2611	741	220
1726	-1703	2126	1245	2611	741	220
1731	-1271	1224	1022	2611	741	220
1736	-1326	895	376	2611	741	220
1741	-1303	684	364	600	-76	1041
1746	-918	-70	-121	600	-76	1041
1751	-2371	463	-260	600	-76	1041
1756	-905	1161	757	600	-76	1041
1761	-1073	1641	497	600	-76	1041
1766	-1052	1949	664	600	-76	1041
1771	-1077	1922	459	260	96	297
1776	-1101	2258	651	260	96	297
1781	-1239	2255	662	260	96	297
1786	-1316	2134	524	260	96	297
1791	-1300	2079	495	260	96	297
1796	-1262	1977	462	260	96	297
1801	-1250	1917	485	1127	171	452
1806	-1061	1629	346	1127	171	452
1811	-747	1694	630	1127	171	452
1816	-931	1519	304	1127	171	452
1821	-952	1652	305	1127	171	452
1826	-1107	1595	618	1127	171	452
1831	-419	1687	341	-167	11	875
1836	-1079	1432	512	-167	11	875
1841	-974	1395	560	-167	11	875
1846	-958	1305	557	-167	11	875
1851	-912	1334	494	-167	11	875
1856	-868	1429	382	-167	11	875
1861	-880	1591	321	-167	11	875
1866	-1032	1883	276	167	73	743
1871	-776	2052	361	167	73	743
1876	-1084	2025	317	167	73	743
1881	-1118	1946	384	167	73	743
1886	-1175	1957	464	167	73	743
1891	-946	1852	459	167	73	743
1896	-1093	1967	463	1295	554	291
1901	-1067	1827	389	1295	554	291
1906	-1040	1745	339	1295	554	291
1911	-992	1818	370	1295	554	291
1916	-980	1884	344	1295	554	291
1921	-965	1976	411	1295	554	291
1926	-1012	1975	392	1520	970	468
1931	-1028	1990	366	1520	970	468
1936	-1092	2555	750	1520	970	468
1941	-994	1749	335	1520	970	468
1946	-1026	1836	246	1520	970	468
1951	-1087	1814	288	1520	970	468
1956	-1111	1800	198	2898	1530	565
1961	-996	1755	75	2898	1530	565
1966	-843	1810	-103	2898	1530	565
1971	-760	1705	-182	2898	1530	565
1976	-496	1660	-303	2898	1530	565
1981	-594	1536	-325	2898	1530	565
1986	-599	1760	-343	1211	2003	591
1991	-568	1867	-322	1211	2003	591
1996	-553	1807	-202	1211	2003	591
2001	-482	1675	-163	1211	2003	591
2006	-416	1257	-167	1211	2003	591
2011	-292	1160	-156	1211	2003	591
2016	-635	837	-355	1211	2003	591
2021	-378	729	-471	-1193	2786	1624
2026	-292	1536	336	-1193	2786	1624
2031	-398	1046	-75	-1193	2786	1624
2036	-744	959	442	-1193	2786	1624
2041	-588	844	485	-1193	2786	1624
2046	-38	874	233	-1193	2786	1624
2051	352	967	105	-157	2997	3588
2056	522	960	196	-157	2997	3588
2061	618	833	249	-157	2997	3588
2066	644	829	216	-157	2997	3588
2071	665	871	198	-157	2997	3588
2076	753	968	220	-157	2997	3588
2081	997	908	217	581	2512	5242
2086	1202	874	220	581	2512	5242
2091	1255	1045	542	581	2512	5242
2096	1150	667	374	581	2512	5242
2101	1263	695	-45	581	2512	5242
2106	1551	878	-485	581	2512	5242
2111	1766	1002	-758	1113	2559	3086
2116	1984	1205	-1050	1113	2559	3086
2121	2044	1329	-1211	1113	2559	3086
2126	2538	1673	-1227	1113	2559	3086
2131	2978	2650	-1226	1113	2559	3086
2136	2715	3835	-1606	1113	2559	3086
2141	2459	4910	-2219	2476	1274	-1385
2146	2009	5706	-2406	2476	1274	-1385
2151	2112	5629	-2218	2476	1274	-1385
2156	1999	5120	-1976	2476	1274	-1385
2161	2055	4948	-1765	2476	1274	-1385
2166	2118	4923	-2032	2476	1274	-1385
2171	2162	5261	-2614	2476	1274	-1385
2176	2267	5989	-3147	-291	-2393	-8213
2181	2412	6797	-3814	-291	-2393	-8213
2186	2560	7651	-4152	-291	-2393	-8213
2191	2820	8103	-4097	-291	-2393	-8213
2196	3026	8042	-3659	-291	-2393	-8213
2201	3307	7918	-3360	-291	-2393	-8213
2206	3594	8078	-3556	-4516	-3669	-14781
2211	4110	7669	-3763	-4516	-3669	-14781
2216	4604	6868	-3904	-4516	-3669	-14781
2221	4988	5774	-3574	-4516	-3669	-14781
2226	5602	4620	-2541	-4516	-3669	-14781
2231	5633	3097	-1159	-4516	-3669	-14781
2236	5143	1382	-355	-4269	202	-17084
2241	4837	180	103	-4269	202	-17084
2246	4456	-261	113	-4269	202	-17084
2251	4238	82	-83	-4269	202	-17084
2256	3497	-123	-150	-4269	202	-17084
2261	3500	-106	-156	-4269	202	-17084
2266	3485	-99	-169	-3430	4377	-16510
2271	3472	-83	-166	-3430	4377	-16510
2276	3475	-75	-185	-3430	4377	-16510
2281	3473	-75	-166	-3430	4377	-16510
2286	3477	-70	-157	-3430	4377	-16510
2291	3477	-63	-166	-3430	4377	-16510
2296	3473	-53	-159	-1474	6896	-15470
2301	3473	-60	-167	-1474	6896	-15470
2306	3478	-51	-165	-1474	6896	-15470
2311	3489	-39	-161	-1474	6896	-15470
2316	3481	-49	-166	-1474	6896	-15470
2321	3473	-48	-173	-1474	6896	-15470
2326	3478	-31	-157	-1474	6896	-15470
2331	3483	-43	-159	698	7352	-15279
2336	3489	-41	-152	698	7352	-15279
2341	3489	-41	-163	698	7352	-15279
2346	3490	-32	-161	698	7352	-15279
2351	3487	-40	-148	698	7352	-15279
2356	3497	-43	-150	698	7352	-15279
2361	3500	-41	-148	2778	5671	-15894
2366	3492	-47	-145	2778	5671	-15894
2371	3483	-38	-125	2778	5671	-15894
2376	3489	-44	-145	2778	5671	-15894
2381	3491	-56	-135	2778	5671	-15894
2386	3493	-56	-131	2778	5671	-15894
2391	3489	-59	-133	4072	2091	-16615
2396	3486	-63	-136	4072	2091	-16615
2401	3482	-69	-113	4072	2091	-16615
2406	3480	-72	-110	4072	2091	-16615
2411	3463	-77	-131	4072	2091	-16615
2416	3456	-85	-103	4072	2091	-16615
2421	3448	-87	-101	4694	863	2393
2426	-10947	-7328	1271	4694	863	2393
2431	60	1308	-422	4694	863	2393
2436	-596	3796	384	4694	863	2393
2441	-1179	5334	371	4694	863	2393
2446	-581	5930	9	4694	863	2393
2451	56	5009	-782	-4557	-946	289
2456	1288	3840	-1576	-4557	-946	289
2461	813	3010	-3773	-4557	-946	289
2466	-1474	2872	-4353	-4557	-946	289
2471	-2357	293	-2081	-4557	-946	289
2476	745	-1323	150	-4557	-946	289
2481	-1910	-922	536	-4557	-946	289
2486	-2183	-1226	879	374	2228	4077
2491	-1882	-1484	2057	374	2228	4077
2496	-1682	-1160	2563	374	2228	4077
2501	-1140	-704	2567	374	2228	4077
2506	-447	171	2077	374	2228	4077
2511	-58	1105	994	374	2228	4077
2516	47	1468	-37	-3668	1933	1480
2521	-56	1645	-852	-3668	1933	1480
2526	-43	1723	-1113	-3668	1933	1480
2531	-84	1315	-1033	-3668	1933	1480
2536	24	451	-761	-3668	1933	1480
2541	335	-86	-768	-3668	1933	1480
2546	715	-497	-643	-1470	-518	6105
2551	503	-755	-623	-1470	-518	6105
2556	385	-817	-494	-1470	-518	6105
2561	335	-829	-342	-1470	-518	6105
2566	784	-936	-180	-1470	-518	6105
2571	1506	-1053	65	-1470	-518	6105
2576	1933	-787	214	432	721	8724
2581	1970	-99	363	432	721	8724
2586	2180	441	229	432	721	8724
2591	2859	771	-61	432	721	8724
2596	3518	1168	-274	432	721	8724
2601	4696	4113	93	432	721	8724
2606	4915	6167	459	-288	-272	-793
2611	4522	7836	-37	-288	-272	-793
2616	3482	8594	-653	-288	-272	-793
2621	2971	7866	-1541	-288	-272	-793
2626	3266	7546	-1602	-288	-272	-793
2631	3234	7640	-1082	-288	-272	-793
2636	3203	7598	-612	-288	-272	-793
2641	3014	7269	-569	1883	-1523	-5002
2646	2882	6880	-755	1883	-1523	-5002
2651	2799	6668	-1107	1883	-1523	-5002
2656	2819	6862	-1494	1883	-1523	-5002
2661	2931	7442	-1716	1883	-1523	-5002
2666	3372	8305	-1597	1883	-1523	-5002
2671	3916	8570	-1432	-2006	-3430	-13558
2676	4268	8111	-1409	-2006	-3430	-13558
2681	4405	7550	-1513	-2006	-3430	-13558
2686	4426	7196	-1687	-2006	-3430	-13558
2691	4877	6623	-1628	-2006	-3430	-13558
2696	5646	5882	-1393	-2006	-3430	-13558
2701	6213	4673	-1077	157	-2021	-15672
2706	6072	2959	-592	157	-2021	-15672
2711	4851	1293	-230	157	-2021	-15672
2716	3968	231	40	157	-2021	-15672
2721	3149	-214	-21	157	-2021	-15672
2726	3061	-144	-93	157	-2021	-15672
2731	2992	-110	-115	-395	-1887	-15414
2736	2987	-93	-126	-395	-1887	-15414
2741	2982	-97	-132	-395	-1887	-15414
2746	2974	-85	-123	-395	-1887	-15414
2751	2979	-88	-105	-395	-1887	-15414
2756	2977	-91	-128	-395	-1887	-15414
2761	2973	-89	-138	-859	-1303	-15676
2766	2970	-91	-123	-859	-1303	-15676
2771	2969	-74	-121	-859	-1303	-15676
2776	2959	-85	-135	-859	-1303	-15676
2781	2963	-84	-118	-859	-1303	-15676
2786	2965	-92	-126	-859	-1303	-15676
2791	2947	-90	-123	-859	-1303	-15676
2796	2959	-91	-130	-1003	-373	-15623
2801	2954	-90	-117	-1003	-373	-15623
2806	2943	-90	-123	-1003	-373	-15623
2811	2945	-97	-134	-1003	-373	-15623
2816	2946	-95	-136	-1003	-373	-15623
2821	2940	-85	-140	-1003	-373	-15623
2826	2934	-83	-140	-914	646	-15527
2831	2936	-83	-141	-914	646	-15527
2836	2933	-77	-146	-914	646	-15527
2841	2940	-78	-138	-914	646	-15527
2846	2936	-72	-139	-914	646	-15527
2851	2923	-84	-152	-914	646	-15527
2856	2925	-74	-136	-522	1348	-15524
2861	2934	-75	-136	-522	1348	-15524
2866	2925	-66	-134	-522	1348	-15524
2871	2920	-70	-139	-522	1348	-15524
2876	2915	-74	-136	-522	1348	-15524
2881	2913	-63	-145	-522	1348	-15524
2886	2916	-61	-133	-35	1640	-15298
2891	2914	-65	-130	-35	1640	-15298
2896	2908	-63	-130	-35	1640	-15298
2901	2901	-69	-125	-35	1640	-15298
2906	2907	-63	-135	-35	1640	-15298
2911	2892	-53	-127	-35	1640	-15298
2916	2890	-64	-130	-4840	507	7137
2921	2896	-73	-124	-4840	507	7137
2926	2891	-78	-139	-4840	507	7137
2931	-16194	-6842	-2042	-4840	507	7137
2936	-1388	243	-16	-4840	507	7137
2941	-1847	293	185	-4840	507	7137
2946	-916	-122	193	-4840	507	7137
2951	-1159	37	79	1076	303	2346
2956	-1239	-93	257	1076	303	2346
2961	-3605	168	358	1076	303	2346
2966	-7119	8077	-2015	1076	303	2346
2971	-1652	7939	-3635	1076	303	2346
2976	944	4492	718	1076	303	2346
2981	989	3893	1335	-470	-166	4439
2986	-877	2807	-20	-470	-166	4439
2991	-1264	487	-832	-470	-166	4439
2996	-1509	-858	-358	-470	-166	4439
3001	-1136	-1431	-64	-470	-166	4439
3006	-947	-1247	-90	-470	-166	4439
3011	-765	-354	414	2389	71	2309
3016	-510	736	838	2389	71	2309
3021	27	1631	853	2389	71	2309
3026	113	2394	77	2389	71	2309
3031	26	3032	-878	2389	71	2309
3036	151	2902	-1404	2389	71	2309
3041	258	2440	-1636	1693	-102	1613
3046	342	1479	-1331	1693	-102	1613
3051	345	687	-786	1693	-102	1613
3056	310	223	-383	1693	-102	1613
3061	133	71	-103	1693	-102	1613
3066	96	-83	48	1693	-102	1613
3071	76	-103	180	3908	1962	7177
3076	81	-236	366	3908	1962	7177
3081	211	-393	330	3908	1962	7177
3086	667	-450	403	3908	1962	7177
3091	1360	-396	475	3908	1962	7177
3096	1871	-71	686	3908	1962	7177
3101	2391	449	791	3908	1962	7177
3106	2987	1370	-197	333	4021	1335
3111	3546	2022	-591	333	4021	1335
3116	3435	3137	-856	333	4021	1335
3121	2899	4311	-1722	333	4021	1335
3126	2764	6281	-2959	333	4021	1335
3131	3028	7381	-4108	333	4021	1335
3136	3188	6859	-5229	132	-751	74
3141	1888	4835	-5379	132	-751	74
3146	2049	3313	-4996	132	-751	74
3151	2306	2886	-4454	132	-751	74
3156	2163	2931	-3823	132	-751	74
3161	2090	3585	-3494	132	-751	74
3166	1985	4599	-3662	574	-2450	-6398
3171	1873	5672	-3767	574	-2450	-6398
3176	1962	6606	-3721	574	-2450	-6398
3181	2202	7381	-3548	574	-2450	-6398
3186	2588	7586	-3511	574	-2450	-6398
3191	2986	7608	-4031	574	-2450	-6398
3196	3498	7511	-4877	-800	-9088	-9538
3201	4091	6602	-5742	-800	-9088	-9538
3206	4473	5355	-6222	-800	-9088	-9538
3211	4581	4280	-5906	-800	-9088	-9538
3216	5138	3380	-4602	-800	-9088	-9538
3221	5304	2371	-3151	-800	-9088	-9538
3226	4783	1813	-1734	-6486	-5175	-12052
3231	4628	1011	-566	-6486	-5175	-12052
3236	3768	4	198	-6486	-5175	-12052
3241	4132	57	223	-6486	-5175	-12052
3246	3166	-282	501	-6486	-5175	-12052
3251	2537	-133	511	-6486	-5175	-12052
3256	2063	-110	-114	-6486	-5175	-12052
3261	2050	-101	-133	-7058	85	-13085
3266	2051	-103	-141	-7058	85	-13085
3271	2036	-93	-141	-7058	85	-13085
3276	2030	-87	-138	-7058	85	-13085
3281	2027	-73	-161	-7058	85	-13085
3286	2008	-65	-170	-7058	85	-13085
3291	2016	-57	-170	-6276	5438	-11957
3296	2008	-50	-162	-6276	5438	-11957
3301	2001	-40	-154	-6276	5438	-11957
3306	1993	-38	-164	-6276	5438	-11957
3311	1997	-29	-167	-6276	5438	-11957
3316	1998	-19	-151	-6276	5438	-11957
3321	1998	-5	-157	-4689	9166	-9250
3326	2001	-6	-187	-4689	9166	-9250
3331	1999	11	-164	-4689	9166	-9250
3336	1993	16	-162	-4689	9166	-9250
3341	2003	14	-162	-4689	9166	-9250
3346	2007	19	-172	-4689	9166	-9250
3351	2014	18	-157	-3085	11137	-7029
3356	2018	24	-162	-3085	11137	-7029
3361	2013	28	-148	-3085	11137	-7029
3366	2029	27	-153	-3085	11137	-7029
3371	2024	30	-145	-3085	11137	-7029
3376	2031	29	-141	-3085	11137	-7029
3381	2036	38	-141	-1730	12037	-5103
3386	2041	33	-126	-1730	12037	-5103
3391	2036	33	-125	-1730	12037	-5103
3396	2056	33	-139	-1730	12037	-5103
3401	2044	31	-121	-1730	12037	-5103
3406	2042	29	-116	-1730	12037	-5103
3411	2046	35	-101	-1730	12037	-5103
3416	2047	28	-93	12043	12758	-5538
3421	2046	27	-94	12043	12758	-5538
3426	2042	30	-93	12043	12758	-5538
3431	2053	36	-91	12043	12758	-5538
3436	2037	32	-77	12043	12758	-5538
3441	3873	2898	9716	12043	12758	-5538
3446	406	9054	14335	-5035	185	1219
3451	2181	-1993	4262	-5035	185	1219
3456	945	-1781	1493	-5035	185	1219
3461	122	-463	-116	-5035	185	1219
3466	534	-836	629	-5035	185	1219
3471	-94	-427	-458	-5035	185	1219
3476	-164	-674	-273	-2378	-1721	-1189
3481	-910	85	715	-2378	-1721	-1189
3486	-613	110	929	-2378	-1721	-1189
3491	-222	52	1036	-2378	-1721	-1189
3496	-195	-291	1240	-2378	-1721	-1189
3501	-258	-840	1060	-2378	-1721	-1189
3506	-91	-1172	526	-5358	-889	174
3511	71	-1108	29	-5358	-889	174
3516	148	-1149	100	-5358	-889	174
3521	209	-1435	844	-5358	-889	174
3526	271	-1747	1700	-5358	-889	174
3531	444	-1738	2197	-5358	-889	174
3536	727	-1376	2411	-2568	-988	-3528
3541	520	-800	2092	-2568	-988	-3528
3546	663	-98	1453	-2568	-988	-3528
3551	769	345	758	-2568	-988	-3528
3556	841	540	198	-2568	-988	-3528
3561	936	496	-292	-2568	-988	-3528
3566	1143	90	-484	-2568	-988	-3528
3571	1295	-411	-333	-5390	-979	-4864
3576	1469	-681	213	-5390	-979	-4864
3581	1785	-1037	1005	-5390	-979	-4864
3586	1760	-1466	1351	-5390	-979	-4864
3591	1401	-3107	2395	-5390	-979	-4864
3596	1535	-3675	1554	-5390	-979	-4864
3601	1753	-4272	1454	-309	-106	-395
3606	2071	-4059	1261	-309	-106	-395
3611	2605	-4396	936	-309	-106	-395
3616	3008	-4662	552	-309	-106	-395
3621	1755	-4880	731	-309	-106	-395
3626	1456	-5075	1094	-309	-106	-395
3631	1285	-5129	1396	-1483	-89	3573
3636	1258	-5372	1454	-1483	-89	3573
3641	1264	-5767	1184	-1483	-89	3573
3646	1351	-6056	919	-1483	-89	3573
3651	1512	-6281	794	-1483	-89	3573
3656	1796	-6716	880	-1483	-89	3573
3661	2073	-7400	1268	1753	-122	8680
3666	2214	-8130	1697	1753	-122	8680
3671	2407	-8583	1643	1753	-122	8680
3676	2848	-8792	1267	1753	-122	8680
3681	3260	-7722	747	1753	-122	8680
3686	3516	-6601	391	1753	-122	8680
3691	3595	-5880	704	-4650	2358	14425
3696	3654	-5411	1328	-4650	2358	14425
3701	3859	-4675	2071	-4650	2358	14425
3706	3834	-4002	2362	-4650	2358	14425
3711	3987	-2902	2016	-4650	2358	14425
3716	4032	-1640	1213	-4650	2358	14425
3721	3725	-680	694	-4650	2358	14425
3726	3412	-271	274	-3465	-678	15338
3731	3046	92	-167	-3465	-678	15338
3736	2973	25	-198	-3465	-678	15338
3741	2969	-29	-165	-3465	-678	15338
3746	2935	-43	-45	-3465	-678	15338
3751	2888	-85	-107	-3465	-678	15338
3756	2902	-89	-146	-2849	-3649	15055
3761	2914	-82	-95	-2849	-3649	15055
3766	2930	-67	-59	-2849	-3649	15055
3771	2926	-51	-118	-2849	-3649	15055
3776	2920	-51	-130	-2849	-3649	15055
3781	2921	-44	-134	-2849	-3649	15055
3786	2919	-49	-112	-1437	-5525	14320
3791	2917	-44	-144	-1437	-5525	14320
3796	2917	-50	-119	-1437	-5525	14320
3801	2919	-34	-134	-1437	-5525	14320
3806	2904	-20	-121	-1437	-5525	14320
3811	2903	-31	-139	-1437	-5525	14320
3816	2904	-23	-127	167	-6020	14151
3821	2895	-21	-126	167	-6020	14151
3826	2887	-28	-137	167	-6020	14151
3831	2896	-27	-132	167	-6020	14151
3836	2888	-23	-127	167	-6020	14151
3841	2881	-20	-143	167	-6020	14151
3846	2881	-19	-136	1699	-4931	14495
3851	2876	-27	-155	1699	-4931	14495
3856	2865	-22	-139	1699	-4931	14495
3861	2860	-20	-148	1699	-4931	14495
3866	2852	-31	-152	1699	-4931	14495
3871	2855	-28	-139	1699	-4931	14495
3876	2847	-31	-148	1699	-4931	14495
3881	2838	-35	-156	2714	-2687	14983
3886	2835	-43	-149	2714	-2687	14983
3891	2818	-43	-174	2714	-2687	14983
3896	2815	-44	-157	2714	-2687	14983
3901	2816	-40	-160	2714	-2687	14983
3906	2815	-46	-155	2714	-2687	14983
3911	2800	-49	-167	1628	1241	3847
3916	-12194	-32768	9796	1628	1241	3847
3921	-2451	-1486	-747	1628	1241	3847
3926	-1024	-805	1026	1628	1241	3847
3931	1274	-276	295	1628	1241	3847
3936	-739	980	-1051	1628	1241	3847
3941	-2738	-1754	-2371	-1430	3528	-723
3946	-2327	576	-943	-1430	3528	-723
3951	-3235	1444	2037	-1430	3528	-723
3956	-850	-760	2429	-1430	3528	-723
3961	-1252	-1268	-367	-1430	3528	-723
3966	-406	-112	-1316	-1430	3528	-723
3971	-1032	-65	-2619	639	1304	-698
3976	-1133	31	-2709	639	1304	-698
3981	-1138	-28	-2431	639	1304	-698
3986	-1164	-294	-2170	639	1304	-698
3991	-1028	-236	-1763	639	1304	-698
3996	-893	-61	-1035	639	1304	-698
4001	-927	174	-856	74	874	-1836
4006	-921	290	-834	74	874	-1836
4011	-877	438	-746	74	874	-1836
4016	-472	597	-713	74	874	-1836
4021	-113	418	-609	74	874	-1836
4026	-374	405	-1046	74	874	-1836
4031	-289	344	-1259	74	874	-1836
4036	373	416	-1363	-2503	-98	-1637
4041	-94	691	-1458	-2503	-98	-1637
4046	-4	438	-1950	-2503	-98	-1637
4051	761	-458	-2091	-2503	-98	-1637
4056	1154	-2169	-1156	-2503	-98	-1637
4061	966	-2871	90	-2503	-98	-1637
4066	-46	-3276	579	5541	3725	-3997
4071	242	-1082	684	5541	3725	-3997
4076	355	714	44	5541	3725	-3997
4081	400	1125	-467	5541	3725	-3997
4086	543	810	-930	5541	3725	-3997
4091	696	-518	-1354	5541	3725	-3997
4096	909	-1732	-2208	3575	348	-4967
4101	2451	-1837	-2333	3575	348	-4967
4106	2221	-1997	-2038	3575	348	-4967
4111	1482	-1737	-1735	3575	348	-4967
4116	1721	-1348	-2130	3575	348	-4967
4121	1866	-1906	-2414	3575	348	-4967
4126	2491	-3212	-1932	9360	-1223	1381
4131	2864	-3582	-1088	9360	-1223	1381
4136	2759	-5141	-1577	9360	-1223	1381
4141	2180	-8081	-841	9360	-1223	1381
4146	1353	-7166	55	9360	-1223	1381
4151	1468	-5643	961	9360	-1223	1381
4156	1733	-4121	1400	1384	1071	-1035
4161	1637	-3425	1815	1384	1071	-1035
4166	1549	-3169	1661	1384	1071	-1035
4171	1467	-3127	1571	1384	1071	-1035
4176	1145	-3336	1510	1384	1071	-1035
4181	920	-4360	1564	1384	1071	-1035
4186	1225	-5829	1799	1384	1071	-1035
4191	1410	-6486	1894	1426	1803	4865
4196	1642	-6787	1844	1426	1803	4865
4201	2078	-7212	1858	1426	1803	4865
4206	2213	-6774	1811	1426	1803	4865
4211	2316	-6742	2036	1426	1803	4865
4216	2810	-6885	2994	1426	1803	4865
4221	3269	-6814	3708	-268	7828	10722
4226	3110	-6656	4066	-268	7828	10722
4231	3599	-6152	3977	-268	7828	10722
4236	3886	-5222	3063	-268	7828	10722
4241	4317	-4366	2182	-268	7828	10722
4246	4437	-3691	1505	-268	7828	10722
4251	4548	-3185	1057	-7032	3725	15086
4256	4821	-2524	670	-7032	3725	15086
4261	5149	-2099	590	-7032	3725	15086
4266	4454	-1419	303	-7032	3725	15086
4271	3487	-187	-358	-7032	3725	15086
4276	2949	-6	-304	-7032	3725	15086
4281	3218	-47	-104	-7153	-3386	14632
4286	2764	-28	-86	-7153	-3386	14632
4291	2772	-35	-197	-7153	-3386	14632
4296	2745	-121	163	-7153	-3386	14632
4301	2738	-112	-36	-7153	-3386	14632
4306	2818	-75	-102	-7153	-3386	14632
4311	2778	-80	-121	-5452	-8805	12067
4316	2809	-72	-109	-5452	-8805	12067
4321	2808	-70	-95	-5452	-8805	12067
4326	2818	-59	-98	-5452	-8805	12067
4331	2822	-49	-104	-5452	-8805	12067
4336	2814	-53	-92	-5452	-8805	12067
4341	2816	-40	-109	-5452	-8805	12067
4346	2813	-34	-102	-3366	-11660	9546
4351	2818	-27	-88	-3366	-11660	9546
4356	2813	-34	-106	-3366	-11660	9546
4361	2817	-18	-115	-3366	-11660	9546
4366	2816	-16	-101	-3366	-11660	9546
4371	2802	-18	-116	-3366	-11660	9546
4376	2798	-11	-110	-1313	-12760	7917
4381	2793	-9	-107	-1313	-12760	7917
4386	2784	-1	-111	-1313	-12760	7917
4391	2780	0	-104	-1313	-12760	7917
4396	2777	0	-121	-1313	-12760	7917
4401	2772	-7	-117	-1313	-12760	7917
4406	2763	4	-109	523	-12824	7810
4411	2756	4	-121	523	-12824	7810
4416	2741	12	-123	523	-12824	7810
4421	2742	16	-126	523	-12824	7810
4426	2730	22	-131	523	-12824	7810
4431	2711	18	-126	523	-12824	7810
4436	2703	31	-138	-26747	2164	-5727
4441	2689	26	-136	-26747	2164	-5727
4446	2688	24	-135	-26747	2164	-5727
4451	2680	39	-148	-26747	2164	-5727
4456	2652	41	-148	-26747	2164	-5727
4461	2647	39	-134	-26747	2164	-5727
4466	-15388	6266	8866	4774	1234	1704
4471	935	10	-362	4774	1234	1704
4476	-154	237	-4886	4774	1234	1704
4481	658	1491	-3121	4774	1234	1704
4486	140	1333	-4868	4774	1234	1704
4491	134	-134	-6775	4774	1234	1704
4496	-2357	-6125	-11830	4774	1234	1704
4501	1590	-2313	-7837	-5192	-2061	-1953
4506	1311	-234	-4862	-5192	-2061	-1953
4511	-364	2781	-2698	-5192	-2061	-1953
4516	-965	4176	-1073	-5192	-2061	-1953
4521	-863	3250	226	-5192	-2061	-1953
4526	-1442	2544	1099	-5192	-2061	-1953
4531	-1412	1600	1392	-3070	3010	-1515
4536	-1328	1095	1461	-3070	3010	-1515
4541	-1009	864	1319	-3070	3010	-1515
4546	-453	851	1395	-3070	3010	-1515
4551	-28	1116	858	-3070	3010	-1515
4556	125	805	-424	-3070	3010	-1515
4561	85	451	-1407	-4391	2115	-503
4566	-8	408	-1978	-4391	2115	-503
4571	-14	675	-2123	-4391	2115	-503
4576	177	987	-1613	-4391	2115	-503
4581	242	679	-824	-4391	2115	-503
4586	262	126	-294	-4391	2115	-503
4591	380	-244	-32	-3830	2167	2413
4596	565	-671	-141	-3830	2167	2413
4601	954	-874	-462	-3830	2167	2413
4606	747	-957	-884	-3830	2167	2413
4611	361	-620	-996	-3830	2167	2413
4616	473	-137	-241	-3830	2167	2413
4621	890	12	-127	-3790	2558	7937
4626	1182	-152	46	-3790	2558	7937
4631	1366	-260	91	-3790	2558	7937
4636	1741	-175	-218	-3790	2558	7937
4641	2162	-2	-775	-3790	2558	7937
4646	2616	190	-1262	-3790	2558	7937
4651	2476	549	-1327	-3790	2558	7937
4656	2543	3426	-1603	1812	2147	461
4661	3526	6458	-701	1812	2147	461
4666	5022	9566	454	1812	2147	461
4671	2939	9019	714	1812	2147	461
4676	2368	7219	-222	1812	2147	461
4681	2941	6404	-1136	1812	2147	461
4686	2813	6111	-2361	1983	-250	-2000
4691	2368	6207	-2964	1983	-250	-2000
4696	2146	6536	-3031	1983	-250	-2000
4701	2007	6620	-2363	1983	-250	-2000
4706	2099	6503	-1520	1983	-250	-2000
4711	2116	6425	-1161	1983	-250	-2000
4716	2045	6686	-1334	-338	-2246	-9114
4721	1984	7080	-1797	-338	-2246	-9114
4726	2170	7586	-2143	-338	-2246	-9114
4731	2443	8228	-2245	-338	-2246	-9114
4736	2852	8498	-2139	-338	-2246	-9114
4741	3245	8186	-1823	-338	-2246	-9114
4746	3721	7101	-1410	-3646	-3048	-12178
4751	4145	5442	-1194	-3646	-3048	-12178
4756	4258	3866	-1267	-3646	-3048	-12178
4761	4289	2698	-1233	-3646	-3048	-12178
4766	4116	1692	-1067	-3646	-3048	-12178
4771	3394	714	-813	-3646	-3048	-12178
4776	3446	309	-451	-4294	178	-13051
4781	2236	-182	-126	-4294	178	-13051
4786	2060	-92	-142	-4294	178	-13051
4791	2064	-92	-139	-4294	178	-13051
4796	2061	-82	-140	-4294	178	-13051
4801	2050	-71	-157	-4294	178	-13051
4806	2040	-55	-153	-4294	178	-13051
4811	2043	-56	-161	-3755	3372	-12562
4816	2044	-45	-173	-3755	3372	-12562
4821	2045	-32	-153	-3755	3372	-12562
4826	2031	-44	-149	-3755	3372	-12562
4831	2036	-37	-165	-3755	3372	-12562
4836	2037	-28	-159	-3755	3372	-12562
4841	2029	-34	-161	-2625	5903	-11687
4846	2032	-27	-163	-2625	5903	-11687
4851	2033	-22	-159	-2625	5903	-11687
4856	2031	-19	-157	-2625	5903	-11687
4861	2035	-13	-157	-2625	5903	-11687
4866	2039	-22	-164	-2625	5903	-11687
4871	2043	-11	-152	-1179	7294	-10841
4876	2038	-11	-161	-1179	7294	-10841
4881	2055	-14	-168	-1179	7294	-10841
4886	2042	-11	-150	-1179	7294	-10841
4891	2048	-8	-153	-1179	7294	-10841
4896	2045	1	-147	-1179	7294	-10841
4901	2051	-5	-170	362	7530	-10701
4906	2052	-6	-159	362	7530	-10701
4911	2053	-3	-157	362	7530	-10701
4916	2056	-5	-156	362	7530	-10701
4921	2047	-15	-149	362	7530	-10701
4926	2052	-23	-149	362	7530	-10701
4931	2064	-14	-155	1870	6694	-11037
4936	2052	-4	-161	1870	6694	-11037
4941	2055	-12	-138	1870	6694	-11037
4946	2065	-14	-129	1870	6694	-11037
4951	2062	-15	-125	1870	6694	-11037
4956	2064	-9	-125	1870	6694	-11037
4961	2063	-11	-133	1870	6694	-11037
4966	2064	-19	-125	-12131	3013	289
4971	2057	-19	-115	-12131	3013	289
4976	2051	-24	-121	-12131	3013	289
4981	7423	11476	3750	-12131	3013	289
4986	2833	2055	277	-12131	3013	289
4991	766	140	358	-12131	3013	289
4996	793	824	710	-1770	-2125	-1666
5001	1874	1282	129	-1770	-2125	-1666
5006	2176	1564	878	-1770	-2125	-1666
5011	493	1201	756	-1770	-2125	-1666
5016	536	1899	238	-1770	-2125	-1666
5021	357	2144	33	-1770	-2125	-1666
5026	579	1585	320	530	-2719	-486
5031	689	866	810	530	-2719	-486
5036	611	399	997	530	-2719	-486
5041	368	107	1028	530	-2719	-486
5046	336	-224	1441	530	-2719	-486
5051	283	-475	1806	530	-2719	-486
5056	253	-602	1692	-1189	-905	1376
5061	252	-583	1378	-1189	-905	1376
5066	148	-494	1315	-1189	-905	1376
5071	655	-379	1655	-1189	-905	1376
5076	1023	50	2365	-1189	-905	1376
5081	850	823	3224	-1189	-905	1376
5086	1216	1464	4132	1359	2491	1069
5094	1756	1286	4337	1359	2491	1069
5096	1693	1223	4229	1359	2491	1069
5101	1591	1059	3627	1359	2491	1069
5106	1471	1090	3060	1359	2491	1069
5111	1258	1215	2596	1359	2491	1069
5116	1072	1324	2095	1359	2491	1069
5121	1003	1287	1641	-804	997	207
5126	1580	1360	1021	-804	997	207
5131	1461	1314	535	-804	997	207
5136	835	1063	80	-804	997	207
5141	431	796	-318	-804	997	207
5146	84	396	-727	-804	997	207
5151	262	163	-998	-2222	-6318	1841
5156	842	116	-1248	-2222	-6318	1841
5161	1014	310	-1550	-2222	-6318	1841
5166	727	505	-1371	-2222	-6318	1841
5171	777	590	-1008	-2222	-6318	1841
5176	1790	692	218	-2222	-6318	1841
5181	2154	1117	2614	1009	1753	-1876
5186	1762	2178	5412	1009	1753	-1876
5191	2450	3094	7854	1009	1753	-1876
5196	2643	3981	9015	1009	1753	-1876
5201	1713	4519	8683	1009	1753	-1876
5206	1970	4206	7476	1009	1753	-1876
5211	2149	3853	6318	1102	4855	-3919
5216	1975	3398	5579	1102	4855	-3919
5221	1968	2733	5307	1102	4855	-3919
5226	2170	2694	5567	1102	4855	-3919
5231	2347	3417	6372	1102	4855	-3919
5236	2669	4887	7677	1102	4855	-3919
5241	3234	5884	8356	-5572	13579	-7748
5246	4008	6047	8247	-5572	13579	-7748
5251	4950	5330	7748	-5572	13579	-7748
5256	5809	4133	6693	-5572	13579	-7748
5261	6025	2833	5162	-5572	13579	-7748
5266	6226	1802	3410	-5572	13579	-7748
5271	5624	1108	1529	-5572	13579	-7748
5276	5000	588	553	-4655	16404	-3931
5281	3685	122	-308	-4655	16404	-3931
5286	3334	-80	-121	-4655	16404	-3931
5291	3331	88	-191	-4655	16404	-3931
5296	3330	48	-145	-4655	16404	-3931
5301	3314	71	-101	-4655	16404	-3931
5306	3318	60	-101	-4153	16804	458
5311	3314	53	-108	-4153	16804	458
5316	3304	60	-74	-4153	16804	458
5321	3309	48	-78	-4153	16804	458
5326	3300	52	-70	-4153	16804	458
5331	3302	44	-60	-4153	16804	458
5336	3297	40	-59	-5114	15901	4955
5341	3282	32	-66	-5114	15901	4955
5346	3288	33	-49	-5114	15901	4955
5351	3277	37	-67	-5114	15901	4955
5356	3273	30	-68	-5114	15901	4955
5361	3257	27	-51	-5114	15901	4955
5366	3243	25	-53	-7191	12897	10382
5371	3232	21	-37	-7191	12897	10382
5376	3227	9	-43	-7191	12897	10382
5381	3217	-2	-33	-7191	12897	10382
5386	3214	-6	-31	-7191	12897	10382
5391	3208	-19	-37	-7191	12897	10382
5396	3196	-17	-35	-9701	5795	15143
5401	3185	-35	-33	-9701	5795	15143
5406	3198	-44	-17	-9701	5795	15143
5411	3192	-53	-23	-9701	5795	15143
5416	3196	-72	-24	-9701	5795	15143
5421	3192	-74	-10	-9701	5795	15143
5426	3208	-90	-4	-9701	5795	15143
5431	3201	-101	-30	-9997	-3924	15752
5436	3215	-114	-24	-9997	-3924	15752
5441	3226	-117	-40	-9997	-3924	15752
5446	3234	-123	-50	-9997	-3924	15752
5451	3244	-120	-57	-9997	-3924	15752
5456	3259	-126	-56	-9997	-3924	15752
5461	3264	-122	-66	-30029	553	-4518
5466	3275	-114	-89	-30029	553	-4518
5471	3273	-111	-84	-30029	553	-4518
5476	3287	-104	-89	-30029	553	-4518
5481	-22214	9556	4000	-30029	553	-4518
5486	-8082	4194	3556	-30029	553	-4518
5491	-711	-147	-193	-24184	1549	5047
5496	329	-172	-355	-24184	1549	5047
5501	213	-144	-89	-24184	1549	5047
5506	246	-134	133	-24184	1549	5047
5511	-976	-2365	43	-24184	1549	5047
5516	-254	-483	-742	-24184	1549	5047
5521	-2990	481	-1256	-3254	289	144
5526	-4058	4455	-726	-3254	289	144
5531	-5947	4279	-79	-3254	289	144
5536	-1837	3422	-419	-3254	289	144
5541	1001	2418	-452	-3254	289	144
5546	-9	2353	-496	-3254	289	144
5551	-1469	3256	-963	-446	-2273	399
5556	-1320	3531	-1185	-446	-2273	399
5561	-1172	2900	-1135	-446	-2273	399
5566	-1444	1627	-1015	-446	-2273	399
5571	-2035	310	-456	-446	-2273	399
5576	-2171	-600	459	-446	-2273	399
5581	-1925	-950	1208	-446	-2273	399
5586	-1580	-935	1577	-128	415	2388
5591	-1588	-767	1516	-128	415	2388
5596	-1309	-428	1191	-128	415	2388
5601	-1007	18	878	-128	415	2388
5606	-839	446	666	-128	415	2388
5611	-906	605	673	-128	415	2388
5616	-896	289	710	-377	2532	4070
5621	-644	-238	453	-377	2532	4070
5626	-310	-649	260	-377	2532	4070
5631	84	-934	198	-377	2532	4070
5636	283	-1185	139	-377	2532	4070
5641	273	-1222	91	-377	2532	4070
5646	542	-1015	-1	1785	1526	6440
5651	971	-720	-84	1785	1526	6440
5656	1036	-337	-317	1785	1526	6440
5661	1074	-424	-553	1785	1526	6440
5666	1314	-491	-654	1785	1526	6440
5671	1770	-405	-720	1785	1526	6440
5676	2319	-145	-806	-453	-1861	8755
5681	2353	128	-897	-453	-1861	8755
5686	2518	432	-1109	-453	-1861	8755
5691	2471	648	-1507	-453	-1861	8755
5696	2102	771	-1684	-453	-1861	8755
5701	2413	977	-1144	-453	-1861	8755
5706	3133	1509	-366	-1760	-1564	1137
5711	4628	3040	-82	-1760	-1564	1137
5716	5408	5435	-208	-1760	-1564	1137
5721	5983	7990	-448	-1760	-1564	1137
5726	3978	11013	-1319	-1760	-1564	1137
5731	3191	10650	-2058	-1760	-1564	1137
5736	3646	9353	-1985	-1760	-1564	1137
5741	3258	8810	-1344	-294	-373	-4460
5746	3098	8785	-107	-294	-373	-4460
5751	3037	8952	831	-294	-373	-4460
5756	3492	8707	1026	-294	-373	-4460
5761	3023	8234	506	-294	-373	-4460
5766	2660	7642	-117	-294	-373	-4460
5771	2541	6828	-476	532	-884	-8311
5776	2559	5813	-595	532	-884	-8311
5781	2658	5383	-655	532	-884	-8311
5786	2789	5984	-699	532	-884	-8311
5791	3143	6922	-670	532	-884	-8311
5796	3652	7227	-801	532	-884	-8311
5801	4170	6701	-937	-1513	-494	-15377
5806	4421	5651	-887	-1513	-494	-15377
5811	4390	4138	-614	-1513	-494	-15377
5816	3881	2565	-371	-1513	-494	-15377
5821	3677	1178	-205	-1513	-494	-15377
5826	3548	210	-48	-1513	-494	-15377
5831	3380	28	-173	-1406	1031	-15483
5836	2934	-87	-140	-1406	1031	-15483
5841	2910	-84	-147	-1406	1031	-15483
5846	2911	-85	-147	-1406	1031	-15483
5851	2909	-79	-160	-1406	1031	-15483
5856	2910	-77	-135	-1406	1031	-15483
5861	2907	-69	-150	-909	2259	-15361
5866	2906	-72	-155	-909	2259	-15361
5871	2908	-62	-138	-909	2259	-15361
5876	2908	-71	-175	-909	2259	-15361
5881	2898	-65	-149	-909	2259	-15361
5886	2907	-76	-143	-909	2259	-15361
5891	2900	-76	-164	-909	2259	-15361
5896	2891	-69	-151	-78	2723	-15266
5901	2887	-70	-140	-78	2723	-15266
5906	2900	-70	-138	-78	2723	-15266
5911	2895	-66	-153	-78	2723	-15266
5916	2899	-75	-167	-78	2723	-15266
5921	2887	-70	-144	-78	2723	-15266
5926	2892	-69	-137	710	2435	-15253
5931	2895	-76	-138	710	2435	-15253
5936	2892	-68	-147	710	2435	-15253
5941	2890	-65	-151	710	2435	-15253
5946	2886	-72	-152	710	2435	-15253
5951	2884	-64	-140	710	2435	-15253
5956	2893	-67	-142	1274	1440	-15363
5961	2896	-69	-138	1274	1440	-15363
5966	2892	-79	-136	1274	1440	-15363
5971	2886	-66	-125	1274	1440	-15363
5976	2885	-62	-129	1274	1440	-15363
5981	2876	-69	-141	1274	1440	-15363
5986	2877	-64	-121	1608	-8	-15377
5991	2877	-61	-108	1608	-8	-15377
5996	2873	-62	-127	1608	-8	-15377
6001	2877	-66	-132	1608	-8	-15377
6006	2856	-70	-123	1608	-8	-15377
6011	2861	-65	-143	1608	-8	-15377
6016	2854	-63	-127	3542	4969	10548
6021	2843	-64	-114	3542	4969	10548
6026	2832	-76	-117	3542	4969	10548
6031	-5883	-4827	1620	3542	4969	10548
6036	419	3101	-839	3542	4969	10548
6041	567	1500	96	3542	4969	10548
6046	-249	4629	-461	3542	4969	10548
6051	-47	4614	-692	-12418	-8926	-4019
6056	875	5133	-1570	-12418	-8926	-4019
6061	2828	4962	-6368	-12418	-8926	-4019
6066	3730	6525	-10381	-12418	-8926	-4019
6071	2466	5814	-8622	-12418	-8926	-4019
6076	3629	4434	-1914	-12418	-8926	-4019
6081	3367	3075	3604	799	181	3264
6086	1788	-755	5638	799	181	3264
6091	-200	-2665	4846	799	181	3264
6096	-1432	-3160	3385	799	181	3264
6101	-1263	-2729	2448	799	181	3264
6106	-606	-1393	1956	799	181	3264
6111	-496	107	1735	4747	2219	991
6116	-84	1206	1341	4747	2219	991
6121	-195	1805	1277	4747	2219	991
6126	-314	1639	1125	4747	2219	991
6131	-312	1021	911	4747	2219	991
6136	28	908	592	4747	2219	991
6141	221	1167	270	-1083	1597	1108
6146	510	870	-191	-1083	1597	1108
6151	525	457	-540	-1083	1597	1108
6156	671	-28	-604	-1083	1597	1108
6161	703	-244	-522	-1083	1597	1108
6166	697	-209	-554	-1083	1597	1108
6171	648	-312	-600	135	-1165	8217
6176	920	-463	-610	135	-1165	8217
6181	1381	-758	-604	135	-1165	8217
6186	1730	-936	-478	135	-1165	8217
6191	2115	-675	-351	135	-1165	8217
6196	2454	-55	-212	135	-1165	8217
6201	2679	929	-176	135	-1165	8217
6206	3257	2419	374	814	1472	3534
6211	3877	4130	1344	814	1472	3534
6216	3523	4305	1442	814	1472	3534
6221	2839	3776	641	814	1472	3534
6226	2625	3808	66	814	1472	3534
6231	3042	4668	-94	814	1472	3534
6236	2974	5266	-535	945	-757	1146
6241	2688	5426	-935	945	-757	1146
6246	2706	5374	-1121	945	-757	1146
6251	2892	4910	-1036	945	-757	1146
6256	3005	4612	-920	945	-757	1146
6261	2963	4674	-907	945	-757	1146
6266	2851	5140	-893	269	-862	-3692
6271	2685	5770	-684	269	-862	-3692
6276	2552	6207	-478	269	-862	-3692
6281	2785	6665	-173	269	-862	-3692
6286	2942	6932	108	269	-862	-3692
6291	3096	6815	267	269	-862	-3692
6296	3300	6512	168	-43	-1596	-10394
6301	3450	6226	-98	-43	-1596	-10394
6306	3576	6207	-478	-43	-1596	-10394
6311	3935	6570	-1037	-43	-1596	-10394
6316	4296	6979	-1434	-43	-1596	-10394
6321	4506	6542	-1633	-43	-1596	-10394
6326	4960	5584	-1495	3411	-3974	-13908
6331	5309	4603	-1215	3411	-3974	-13908
6336	5520	3640	-779	3411	-3974	-13908
6341	5203	2596	-415	3411	-3974	-13908
6346	4619	1688	-279	3411	-3974	-13908
6351	4348	994	-215	3411	-3974	-13908
6356	4143	389	-270	3411	-3974	-13908
6361	3456	-224	-167	1137	-5385	-14167
6366	3113	-230	-82	1137	-5385	-14167
6371	2923	-108	-66	1137	-5385	-14167
6376	2774	-90	-79	1137	-5385	-14167
6381	2769	-93	-83	1137	-5385	-14167
6386	2752	-90	-101	1137	-5385	-14167
6391	2762	-95	-84	-385	-5728	-13975
6396	2760	-94	-102	-385	-5728	-13975
6401	2754	-87	-103	-385	-5728	-13975
6406	2763	-86	-107	-385	-5728	-13975
6411	2747	-87	-109	-385	-5728	-13975
6416	2762	-85	-115	-385	-5728	-13975
6421	2746	-86	-110	-1806	-4745	-14375
6426	2747	-100	-89	-1806	-4745	-14375
6431	2743	-87	-110	-1806	-4745	-14375
6436	2747	-92	-106	-1806	-4745	-14375
6441	2733	-99	-109	-1806	-4745	-14375
6446	2740	-92	-121	-1806	-4745	-14375
6451	2729	-101	-114	-2774	-2587	-14759
6456	2724	-98	-118	-2774	-2587	-14759
6461	2729	-92	-123	-2774	-2587	-14759
6466	2725	-98	-104	-2774	-2587	-14759
6471	2725	-103	-120	-2774	-2587	-14759
6476	2707	-96	-112	-2774	-2587	-14759
6481	2708	-95	-133	-3108	348	-15043
6486	2702	-87	-140	-3108	348	-15043
6491	2704	-81	-135	-3108	348	-15043
6496	2704	-81	-144	-3108	348	-15043
6501	2705	-80	-140	-3108	348	-15043
6506	2703	-67	-135	-3108	348	-15043
6511	2696	-64	-146	-3108	348	-15043
6516	2692	-63	-144	4732	2297	-15181
6521	2686	-51	-147	4732	2297	-15181
6526	2685	-50	-155	4732	2297	-15181
6531	2679	-45	-148	4732	2297	-15181
6536	2686	-39	-150	4732	2297	-15181
6541	3427	5976	-77	4732	2297	-15181
6546	-3952	16295	1531	-2422	589	-884
6551	34	1487	376	-2422	589	-884
6556	248	1343	-340	-2422	589	-884
6561	98	859	-141	-2422	589	-884
6566	338	588	59	-2422	589	-884
6571	881	913	-848	-2422	589	-884
6576	643	1260	-1537	743	-3225	1281
6581	-276	1095	-1208	743	-3225	1281
6586	-755	840	-1011	743	-3225	1281
6591	518	684	-344	743	-3225	1281
6596	746	1346	453	743	-3225	1281
6601	998	2244	1032	743	-3225	1281
6606	365	2626	1475	840	-1132	634
6611	278	2247	1541	840	-1132	634
6616	314	1583	1590	840	-1132	634
6621	264	1049	1481	840	-1132	634
6626	-67	540	1488	840	-1132	634
6631	460	169	1672	840	-1132	634
6636	839	-92	1428	2264	4	2541
6641	456	-198	1108	2264	4	2541
6646	39	-120	947	2264	4	2541
6651	40	71	561	2264	4	2541
6656	526	350	119	2264	4	2541
6661	1252	960	421	2264	4	2541
6666	672	1088	678	2264	4	2541
6671	1025	1038	617	-296	1191	3368
6676	1584	1109	410	-296	1191	3368
6681	1315	1319	398	-296	1191	3368
6686	1327	1666	441	-296	1191	3368
6691	1519	1935	432	-296	1191	3368
6696	1401	2437	471	-296	1191	3368
6701	1421	2943	475	1914	-42	3026
6706	1249	3105	251	1914	-42	3026
6711	985	2318	34	1914	-42	3026
6716	1129	1399	21	1914	-42	3026
6721	1343	588	-105	1914	-42	3026
6726	1463	247	-214	1914	-42	3026
6731	1856	543	-234	2414	216	1857
6736	2276	1547	208	2414	216	1857
6741	2417	2919	371	2414	216	1857
6746	2448	4149	199	2414	216	1857
6751	2519	4845	-176	2414	216	1857
6756	2646	5388	-551	2414	216	1857
6761	2598	5839	-831	-3283	-671	-5016
6766	2792	6729	-892	-3283	-671	-5016
6771	2811	8051	-731	-3283	-671	-5016
6776	3040	8547	-328	-3283	-671	-5016
6781	3193	8102	18	-3283	-671	-5016
6786	3290	7328	373	-3283	-671	-5016
6791	3534	6520	743	1449	-594	-10265
6796	3404	6268	1065	1449	-594	-10265
6801	3350	6461	1190	1449	-594	-10265
6806	3541	7151	955	1449	-594	-10265
6811	3853	7880	518	1449	-594	-10265
6816	4266	7916	61	1449	-594	-10265
6821	4627	7335	-241	1449	-594	-10265
6826	5047	6185	-406	270	2117	-14922
6831	5765	4934	-416	270	2117	-14922
6836	5558	3288	-289	270	2117	-14922
6841	5445	1849	-165	270	2117	-14922
6846	5465	298	0	270	2117	-14922
6851	3328	-303	182	270	2117	-14922
6856	2770	-88	-158	772	1719	-14963
6861	2739	-82	-142	772	1719	-14963
6866	2741	-72	-150	772	1719	-14963
6871	2740	-68	-134	772	1719	-14963
6876	2730	-73	-125	772	1719	-14963
6881	2737	-63	-116	772	1719	-14963
6886	2730	-63	-138	1225	713	-14963
6891	2722	-63	-123	1225	713	-14963
6896	2727	-64	-123	1225	713	-14963
6901	2726	-75	-123	1225	713	-14963
6906	2727	-73	-130	1225	713	-14963
6911	2730	-69	-129	1225	713	-14963
6916	2721	-75	-131	1299	-440	-14926
6921	2720	-70	-122	1299	-440	-14926
6926	2715	-68	-125	1299	-440	-14926
6931	2725	-73	-114	1299	-440	-14926
6936	2719	-79	-126	1299	-440	-14926
6941	2713	-69	-128	1299	-440	-14926
6946	2723	-79	-119	987	-1496	-14898
6951	2710	-81	-127	987	-1496	-14898
6956	2711	-79	-114	987	-1496	-14898
6961	2711	-76	-111	987	-1496	-14898
6966	2720	-80	-118	987	-1496	-14898
6971	2709	-80	-118	987	-1496	-14898
6976	2705	-78	-122	987	-1496	-14898
6981	2715	-77	-109	524	-2202	-14693
6986	2705	-77	-101	524	-2202	-14693
6991	2691	-77	-113	524	-2202	-14693
6996	2696	-76	-110	524	-2202	-14693
7001	2697	-75	-128	524	-2202	-14693
7006	2682	-78	-114	524	-2202	-14693
7011	2692	-72	-118	-44	-2443	-14700
7016	2692	-75	-120	-44	-2443	-14700
7021	2687	-72	-105	-44	-2443	-14700
7026	2687	-65	-124	-44	-2443	-14700
7031	2672	-67	-121	-44	-2443	-14700
7036	2669	-77	-120	-44	-2443	-14700
7041	2662	-68	-126	10313	7487	2533
7046	2656	-76	-129	10313	7487	2533
7051	2644	-70	-144	10313	7487	2533
7056	-15855	14488	-6099	10313	7487	2533
7061	592	1408	-394	10313	7487	2533
7066	-848	4512	-1605	10313	7487	2533
7071	-8	2543	-827	-4209	-5291	4105
7076	-1784	1501	196	-4209	-5291	4105
7081	-2080	2537	-852	-4209	-5291	4105
7086	-3037	378	-11276	-4209	-5291	4105
7091	-2160	-6133	-9377	-4209	-5291	4105
7096	996	-517	-3925	-4209	-5291	4105
7101	1751	1996	-1116	-966	1536	1687
7106	59	4312	2814	-966	1536	1687
7111	-1798	2857	1973	-966	1536	1687
7116	-2107	1404	1417	-966	1536	1687
7121	-1811	752	536	-966	1536	1687
7126	-1940	801	53	-966	1536	1687
7131	-1808	1442	-68	-966	1536	1687
7136	-1819	2214	-189	-1841	2268	-146
7141	-1359	2265	-295	-1841	2268	-146
7146	-1110	1898	-307	-1841	2268	-146
7151	-890	1427	-258	-1841	2268	-146
7156	-656	826	-171	-1841	2268	-146
7161	-419	362	-115	-1841	2268	-146
7166	-198	137	-305	-2017	2483	1091
7171	-48	154	-539	-2017	2483	1091
7176	152	337	-893	-2017	2483	1091
7181	358	420	-1198	-2017	2483	1091
7186	396	494	-1425	-2017	2483	1091
7191	303	501	-1441	-2017	2483	1091
7196	145	343	-1327	-3609	630	2615
7201	285	303	-1466	-3609	630	2615
7206	605	551	-1728	-3609	630	2615
7211	868	904	-2153	-3609	630	2615
7216	986	1154	-2331	-3609	630	2615
7221	857	1264	-1967	-3609	630	2615
7226	901	1179	-1536	-3099	-332	3972
7231	1175	966	-1329	-3099	-332	3972
7236	1422	878	-1279	-3099	-332	3972
7241	1562	959	-1205	-3099	-332	3972
7246	1532	1085	-1122	-3099	-332	3972
7251	1259	1171	-1017	-3099	-332	3972
7256	960	1241	-841	1365	1886	3973
7261	711	1305	-373	1365	1886	3973
7266	1250	1449	-51	1365	1886	3973
7271	1645	1509	352	1365	1886	3973
7276	2164	2014	243	1365	1886	3973
7281	2379	3309	-387	1365	1886	3973
7286	2575	4872	-1847	1365	1886	3973
7291	2123	5561	-3002	-1297	459	-2312
7296	1712	6137	-3687	-1297	459	-2312
7301	1435	6615	-3393	-1297	459	-2312
7306	1549	6882	-2273	-1297	459	-2312
7311	1794	7290	-1132	-1297	459	-2312
7316	1898	7682	-999	-1297	459	-2312
7321	2135	7850	-1897	-2406	-2850	-8223
7326	2418	8291	-3371	-2406	-2850	-8223
7331	2505	8233	-4294	-2406	-2850	-8223
7336	2490	7321	-4448	-2406	-2850	-8223
7341	2500	6443	-3477	-2406	-2850	-8223
7346	2556	6220	-2160	-2406	-2850	-8223
7351	2499	6830	-1508	-6204	-1763	-17359
7356	2873	7828	-1362	-6204	-1763	-17359
7361	4047	7965	-1627	-6204	-1763	-17359
7366	4980	6887	-2055	-6204	-1763	-17359
7371	5077	5121	-2079	-6204	-1763	-17359
7376	4917	3658	-1433	-6204	-1763	-17359
7381	4285	2350	-1059	-6300	5485	-17164
7386	4047	1127	-627	-6300	5485	-17164
7391	3874	-114	-209	-6300	5485	-17164
7396	3854	-112	-172	-6300	5485	-17164
7401	3853	-103	-178	-6300	5485	-17164
7406	3839	-67	-167	-6300	5485	-17164
7411	3851	-57	-176	-3647	10579	-14440
7416	3846	-54	-180	-3647	10579	-14440
7421	3854	-41	-182	-3647	10579	-14440
7426	3855	-20	-177	-3647	10579	-14440
7431	3861	-21	-171	-3647	10579	-14440
7436	3865	-15	-176	-3647	10579	-14440
7441	3861	-12	-174	-3647	10579	-14440
7446	3861	-9	-151	-691	12409	-13006
7451	3861	-7	-159	-691	12409	-13006
7456	3862	-19	-172	-691	12409	-13006
7461	3871	-10	-172	-691	12409	-13006
7466	3869	-7	-157	-691	12409	-13006
7471	3861	-12	-158	-691	12409	-13006
7476	3882	-6	-145	2430	11585	-13417
7481	3889	-31	-169	2430	11585	-13417
7486	3879	-22	-151	2430	11585	-13417
7491	3879	-18	-151	2430	11585	-13417
7496	3894	-29	-152	2430	11585	-13417
7501	3886	-34	-129	2430	11585	-13417
7506	3892	-28	-136	5275	8015	-15812
7511	3891	-45	-139	5275	8015	-15812
7516	3881	-54	-120	5275	8015	-15812
7521	3882	-60	-121	5275	8015	-15812
7526	3878	-73	-131	5275	8015	-15812
7531	3879	-81	-122	5275	8015	-15812
7536	3867	-89	-117	6918	1395	-17601
7541	3859	-96	-96	6918	1395	-17601
7546	3855	-102	-99	6918	1395	-17601
7551	3842	-107	-103	6918	1395	-17601
7556	3829	-112	-104	6918	1395	-17601
7561	3826	-122	-102	6918	1395	-17601
7566	3801	-121	-81	-8628	-7751	9130
7571	-22220	-10256	1450	-8628	-7751	9130
7576	-4500	-408	553	-8628	-7751	9130
7581	-2819	-4546	-4504	-8628	-7751	9130
7586	-1387	-2828	-1949	-8628	-7751	9130
7591	1687	-3065	-1885	-8628	-7751	9130
7596	2139	-1031	-2458	-8628	-7751	9130
7601	948	-1226	-1132	-2137	77	-560
7606	-1629	619	-827	-2137	77	-560
7611	-3130	11429	-4130	-2137	77	-560
7616	-135	4671	656	-2137	77	-560
7621	518	4217	4275	-2137	77	-560
7626	-2874	3457	5149	-2137	77	-560
7631	-3017	155	3295	155	298	578
7636	-3038	-1243	1929	155	298	578
7641	-2795	-968	937	155	298	578
7646	-2148	1	-25	155	298	578
7651	-1816	1623	-469	155	298	578
7656	-1471	2987	-334	155	298	578
7661	-920	3385	-583	2447	-3960	77
7666	-1132	2829	-1139	2447	-3960	77
7671	-964	2377	-1931	2447	-3960	77
7676	-872	1887	-2705	2447	-3960	77
7681	-743	1594	-2906	2447	-3960	77
7686	-374	1376	-2493	2447	-3960	77
7691	-254	1260	-1752	-2650	-2462	-58
7696	222	1410	-1285	-2650	-2462	-58
7701	-20	1297	-128	-2650	-2462	-58
7706	-232	1069	627	-2650	-2462	-58
7711	-577	798	1399	-2650	-2462	-58
7716	-589	735	1728	-2650	-2462	-58
7721	-990	1537	1679	-1082	-2497	-1253
7726	-1074	2350	1507	-1082	-2497	-1253
7731	-902	2854	1149	-1082	-2497	-1253
7736	-798	3185	752	-1082	-2497	-1253
7741	-843	2966	514	-1082	-2497	-1253
7746	-988	2206	485	-1082	-2497	-1253
7751	-1047	1297	521	-1082	-2497	-1253
7756	-1144	798	619	1638	-1524	929
7761	-1243	857	969	1638	-1524	929
7766	-1132	782	1385	1638	-1524	929
7771	-1470	1001	1604	1638	-1524	929
7776	-1556	1569	2015	1638	-1524	929
7781	-1390	2279	2335	1638	-1524	929
7786	-1195	3267	2284	675	-1096	-808
7791	-919	3713	1643	675	-1096	-808
7796	-919	3128	762	675	-1096	-808
7801	-976	2441	443	675	-1096	-808
7806	-920	1915	538	675	-1096	-808
7811	-963	1523	756	675	-1096	-808
7816	-1052	1410	926	825	-1143	-938
7821	-1013	1542	848	825	-1143	-938
7826	-927	1716	663	825	-1143	-938
7831	-834	1829	506	825	-1143	-938
7836	-797	1702	493	825	-1143	-938
7841	-679	1818	1145	825	-1143	-938
7846	-741	1360	1016	2009	2	-1054
7851	-494	1190	892	2009	2	-1054
7856	-597	641	2327	2009	2	-1054
7861	-869	676	1709	2009	2	-1054
7866	-1073	1195	436	2009	2	-1054
7871	-994	1406	160	2009	2	-1054
7876	-1023	1576	287	-2637	-1631	-1782
7881	-1176	1863	478	-2637	-1631	-1782
7886	-1227	1885	529	-2637	-1631	-1782
7891	-1177	1944	465	-2637	-1631	-1782
7896	-1378	1873	521	-2637	-1631	-1782
7901	-1465	1537	684	-2637	-1631	-1782
7906	-1467	1337	545	-2637	-1631	-1782
7911	-1387	1261	-39	-2278	-2820	-922
7916	-1217	1344	24	-2278	-2820	-922
7921	-1066	1408	1	-2278	-2820	-922
7926	-951	1249	126	-2278	-2820	-922
7931	-819	1726	970	-2278	-2820	-922
7936	-848	1447	1302	-2278	-2820	-922
7941	-923	1337	1257	2177	-2556	355
7946	-1080	1447	1492	2177	-2556	355
7951	-1288	1561	1738	2177	-2556	355
7956	-819	-2442	2830	2177	-2556	355
7961	-621	1943	466	2177	-2556	355
7966	-1309	703	933	2177	-2556	355
7971	-1147	1112	826	-2339	-1890	-616
7976	-989	1142	955	-2339	-1890	-616
7981	-863	1258	1018	-2339	-1890	-616
7986	-687	1557	964	-2339	-1890	-616
7991	-657	1572	1076	-2339	-1890	-616
7996	-772	1525	1191	-2339	-1890	-616
8001	-933	1567	1435	-290	-972	-262
8006	-1071	1480	1830	-290	-972	-262
8011	-1088	1301	2038	-290	-972	-262
8016	-1030	1490	2104	-290	-972	-262
8021	-831	1555	1884	-290	-972	-262
8026	-702	1420	1693	-290	-972	-262
8031	-685	1295	1542	-1365	-819	-667
8036	-711	1234	1521	-1365	-819	-667
8041	-725	1223	1571	-1365	-819	-667
8046	-703	1140	1565	-1365	-819	-667
8051	-758	1111	1645	-1365	-819	-667
8056	-710	1110	1733	-1365	-819	-667
8061	-643	1205	1918	-1365	-819	-667
8066	-677	1119	2005	-241	-149	-705
8071	-720	1004	1987	-241	-149	-705
8076	-715	1007	1887	-241	-149	-705
8081	-700	997	1773	-241	-149	-705
8086	-665	909	1574	-241	-149	-705
8091	-632	863	1527	-241	-149	-705
8096	-635	814	1571	-983	168	-888
8101	-675	854	1636	-983	168	-888
8106	-666	919	1749	-983	168	-888
8111	-710	938	1829	-983	168	-888
8116	-738	888	1789	-983	168	-888
8121	-736	861	1746	-983	168	-888
8126	-718	778	1706	73	-263	-780
8131	-662	826	1470	73	-263	-780
8136	-649	830	1289	73	-263	-780
8141	-626	817	1286	73	-263	-780
8146	-652	799	1349	73	-263	-780
8151	-720	791	1482	73	-263	-780
8156	-762	766	1645	-2	-48	-648
8161	-788	802	1837	-2	-48	-648
8166	-845	781	1929	-2	-48	-648
8171	-847	806	1876	-2	-48	-648
8176	-758	857	1819	-2	-48	-648
8181	-775	868	1660	-2	-48	-648
8186	-828	850	1574	-101	96	-664
8191	-877	784	1639	-101	96	-664
8196	-947	725	1734	-101	96	-664
8201	-974	665	1862	-101	96	-664
8206	-1001	615	1850	-101	96	-664
8211	-930	589	1743	-101	96	-664
8216	-745	575	1830	-101	96	-664
8221	-749	641	1576	2128	288	1638
8226	-693	664	1584	2128	288	1638
8231	-660	676	1615	2128	288	1638
8236	-674	692	1468	2128	288	1638
8241	-761	585	1616	2128	288	1638
8246	7185	-2592	1161	2128	288	1638
8251	-747	-1225	2204	-743	-320	1041
8256	-1909	-1557	848	-743	-320	1041
8261	783	1140	1629	-743	-320	1041
8266	525	-564	1625	-743	-320	1041
8271	355	-1100	1485	-743	-320	1041
8276	340	-553	2071	-743	-320	1041
8281	-99	152	2256	-187	1914	717
8286	-567	840	2425	-187	1914	717
8291	-982	1181	2592	-187	1914	717
8296	-1334	1373	2514	-187	1914	717
8301	-1641	1534	2391	-187	1914	717
8306	-1866	1575	2270	-187	1914	717
8311	-2016	1488	2055	-280	1977	-125
8316	-2120	1571	1801	-280	1977	-125
8321	-2102	1790	1492	-280	1977	-125
8326	-2085	1916	1180	-280	1977	-125
8331	-2063	1941	905	-280	1977	-125
8336	-2022	1905	832	-280	1977	-125
8341	-1908	1984	911	350	3596	135
8346	-1886	1769	1141	350	3596	135
8351	-1838	1399	1406	350	3596	135
8356	-1641	911	1395	350	3596	135
8361	-1618	477	1556	350	3596	135
8366	-1556	127	1645	350	3596	135
8371	-1337	-21	1629	350	3596	135
8376	-1144	-1	1372	886	1941	213
8381	-1045	171	1040	886	1941	213
8386	-973	607	859	886	1941	213
8391	-910	924	319	886	1941	213
8396	-876	912	-341	886	1941	213
8401	-1044	745	-771	886	1941	213
8406	-1256	578	-571	-235	1610	-508
8411	-1422	719	-165	-235	1610	-508
8416	-1600	1127	90	-235	1610	-508
8421	-1769	1607	1053	-235	1610	-508
8426	-1854	1700	2078	-235	1610	-508
8431	-1897	1135	2460	-235	1610	-508
8436	-1823	543	2600	5133	6143	1360
8441	-1673	-1	2457	5133	6143	1360
8446	-1449	-250	2124	5133	6143	1360
8451	-1435	55	1853	5133	6143	1360
8456	-1350	338	1787	5133	6143	1360
8461	-1432	883	1553	5133	6143	1360
8466	-1168	1038	1198	3454	5819	-537
8471	-1066	999	623	3454	5819	-537
8476	-1630	682	225	3454	5819	-537
8481	-1852	536	-31	3454	5819	-537
8486	-1548	262	-184	3454	5819	-537
8491	-1336	17	-238	3454	5819	-537
8496	-1330	-148	-510	2126	632	963
8501	-1160	-119	-787	2126	632	963
8506	-1305	363	-1181	2126	632	963
8511	-1457	978	-1382	2126	632	963
8516	-1821	1387	-1243	2126	632	963
8521	-985	336	-2305	2126	632	963
8526	-444	-171	-2842	2126	632	963
8531	-828	-285	-2342	5586	-88	1764
8536	-467	308	-2101	5586	-88	1764
8541	-1240	1024	-2010	5586	-88	1764
8546	-1479	1104	-1912	5586	-88	1764
8551	-1082	1025	-1112	5586	-88	1764
8556	-920	1274	-1178	5586	-88	1764
8561	-940	1567	-1465	551	289	-2011
8566	-1041	1499	-1670	551	289	-2011
8571	-1292	1560	-1753	551	289	-2011
8576	-1667	1554	-1837	551	289	-2011
8581	-1372	1459	-1596	551	289	-2011
8586	-1255	966	-1659	551	289	-2011
8591	-1189	152	-1113	1374	1148	-128
8596	-1109	41	-1239	1374	1148	-128
8601	-1046	-39	-1546	1374	1148	-128
8606	-996	43	-1949	1374	1148	-128
8611	-946	213	-2324	1374	1148	-128
8616	-544	243	-2163	1374	1148	-128
8621	-945	319	-2315	-423	-877	238
8626	-920	405	-2151	-423	-877	238
8631	-1554	201	-2743	-423	-877	238
8636	-1675	569	-2170	-423	-877	238
8641	-1407	1022	-1909	-423	-877	238
8646	-1250	830	-1997	-423	-877	238
8651	-1291	714	-1946	1830	-147	-341
8656	-1222	621	-1740	1830	-147	-341
8661	-1312	646	-1744	1830	-147	-341
8666	-1101	557	-1353	1830	-147	-341
8671	-1080	470	-1200	1830	-147	-341
8676	-1431	648	-1090	1830	-147	-341
8681	-1066	1057	-662	1830	-147	-341
8686	-1039	814	-917	1245	151	-620
8691	-999	729	-993	1245	151	-620
8696	-1240	703	-1468	1245	151	-620
8701	-1555	426	-1902	1245	151	-620
8706	-1500	364	-2104	1245	151	-620
8711	-1346	454	-2083	1245	151	-620
8716	-1214	373	-1953	1335	-528	-4
8721	-1205	193	-1700	1335	-528	-4
8726	-1382	334	-1916	1335	-528	-4
8731	-1403	958	-2550	1335	-528	-4
8736	-1153	854	-2402	1335	-528	-4
8741	-1055	359	-1586	1335	-528	-4
8746	-1107	408	-1436	1822	-751	-27
8751	-1222	415	-1271	1822	-751	-27
8756	-1336	374	-1298	1822	-751	-27
8761	-1402	281	-1553	1822	-751	-27
8766	-1516	156	-1912	1822	-751	-27
8771	-1692	27	-1908	1822	-751	-27
8776	-1750	-28	-1745	899	-528	-64
8781	-1770	-32	-1609	899	-528	-64
8786	-1783	-56	-1528	899	-528	-64
8791	-1658	-131	-1449	899	-528	-64
8796	-1534	-236	-1290	899	-528	-64
8801	-1513	-372	-1090	899	-528	-64
8806	-1485	-268	-1113	1502	-772	-70
8811	-1409	-141	-1284	1502	-772	-70
8816	-1402	-106	-1450	1502	-772	-70
8821	-1396	-70	-1647	1502	-772	-70
8826	-1412	-25	-1840	1502	-772	-70
8831	-1414	18	-1894	1502	-772	-70
8836	-1395	-133	-1726	1502	-772	-70
8841	-1401	-114	-1613	2054	-949	-407
8846	-1458	-163	-1489	2054	-949	-407
8851	-1492	-92	-1471	2054	-949	-407
8856	-1642	183	-1419	2054	-949	-407
8861	-1620	104	-1596	2054	-949	-407
8866	-1609	-177	-1572	2054	-949	-407
8871	-1579	-401	-1525	2782	-1061	-158
8876	-1610	-530	-1516	2782	-1061	-158
8881	-1582	-593	-1425	2782	-1061	-158
8886	-1507	-610	-1190	2782	-1061	-158
8891	-1450	-510	-976	2782	-1061	-158
8896	-1548	-405	-884	2782	-1061	-158
8901	-1619	-331	-951	2591	-1196	-443
8906	-1613	-308	-1020	2591	-1196	-443
8911	-1678	-377	-1105	2591	-1196	-443
8916	-1836	-505	-1271	2591	-1196	-443
8921	-1912	-659	-1365	2591	-1196	-443
8926	-1847	-699	-1369	2591	-1196	-443
8931	-1774	-698	-1252	1673	-707	-276
8936	-1719	-629	-1105	1673	-707	-276
8941	-1715	-568	-953	1673	-707	-276
8946	-1670	-427	-804	1673	-707	-276
8951	-1730	-362	-824	1673	-707	-276
8956	-1714	-413	-951	1673	-707	-276
8961	-1714	-621	-1099	458	-273	-54
8966	-1783	-954	-1220	458	-273	-54
8971	-1882	-1075	-1239	458	-273	-54
8976	-1887	-994	-1051	458	-273	-54
8981	-1853	-824	-465	458	-273	-54
8986	-1843	-662	-319	458	-273	-54
8991	-1687	-532	-497	458	-273	-54
8996	-1687	-391	-427	1067	-182	-496
9001	-1648	-438	-524	1067	-182	-496
9006	-1679	-584	-577	1067	-182	-496
9011	-1681	-820	-607	1067	-182	-496
9016	-1700	-1084	-537	1067	-182	-496
9021	-1681	-1133	-419	1067	-182	-496
9026	-1671	-1065	-423	1760	-707	-946
9031	-1764	-876	-544	1760	-707	-946
9036	-1831	-694	-700	1760	-707	-946
9041	-1873	-702	-715	1760	-707	-946
9046	-1769	-806	-696	1760	-707	-946
9051	-1601	-881	-656	1760	-707	-946
9056	-1463	-965	-713	2194	-1079	-837
9061	-1600	-932	-635	2194	-1079	-837
9066	-1751	-931	-497	2194	-1079	-837
9071	-1742	-1233	-403	2194	-1079	-837
9076	-1832	-1683	-49	2194	-1079	-837
9081	-1874	-1757	94	2194	-1079	-837
9086	-1723	-1403	12	1820	-744	-374
9091	-1617	-1154	-23	1820	-744	-374
9096	-1674	-1146	87	1820	-744	-374
9101	-1710	-1286	96	1820	-744	-374
9106	-1865	-1347	125	1820	-744	-374
9111	-1639	-1452	130	1820	-744	-374
9116	-1483	-1432	-107	1630	-829	90
9121	-1478	-1423	-281	1630	-829	90
9126	-1659	-1290	-236	1630	-829	90
9131	-1678	-1400	72	1630	-829	90
9136	-1647	-1324	104	1630	-829	90
9141	-1587	-1315	126	1630	-829	90
9146	-1586	-1371	381	1630	-829	90
9151	-1580	-1427	514	623	-277	153
9156	-1540	-1279	571	623	-277	153
9161	-1499	-1118	686	623	-277	153
9166	-1533	-900	607	623	-277	153
9171	-1516	-898	633	623	-277	153
9176	-1490	-1012	594	623	-277	153
9181	-1573	-1072	621	412	-31	135
9186	-1682	-1149	563	412	-31	135
9191	-1685	-1157	428	412	-31	135
9196	-1357	-1123	633	412	-31	135
9201	-1512	-1238	620	412	-31	135
9206	-1604	-1100	483	412	-31	135
9211	-1700	-880	374	135	85	-27
9216	-1605	-854	356	135	85	-27
9221	-1520	-913	373	135	85	-27
9226	-1593	-1112	485	135	85	-27
9231	-1585	-1225	500	135	85	-27
9236	-1492	-1267	675	135	85	-27
9241	-1395	-1079	674	272	-230	-100
9246	-1351	-1055	437	272	-230	-100
9251	-1479	-1201	509	272	-230	-100
9256	-1513	-1210	573	272	-230	-100
9261	-1595	-1041	415	272	-230	-100
9266	-1710	-1069	210	272	-230	-100
9271	-1722	-1260	293	525	-284	92
9276	-1586	-1317	177	525	-284	92
9281	-1816	-1200	615	525	-284	92
9286	-1654	-1362	792	525	-284	92
9291	-1550	-1186	781	525	-284	92
9296	-1502	-1069	652	525	-284	92
9301	-1500	-985	681	525	-284	92
9306	-1483	-986	729	399	-252	-46
9311	-1537	-966	730	399	-252	-46
9316	-1532	-984	720	399	-252	-46
9321	-1572	-1045	721	399	-252	-46
9326	-1603	-1015	570	399	-252	-46
9331	-1679	-1020	579	399	-252	-46
9336	-1616	-1071	672	368	-212	-336
9341	-1553	-1103	721	368	-212	-336
9346	-1527	-1152	804	368	-212	-336
9351	-1518	-982	811	368	-212	-336
9356	-1490	-824	906	368	-212	-336
9361	-1519	-921	861	368	-212	-336
9366	-1478	-1001	830	574	-363	-84
9371	-1463	-967	842	574	-363	-84
9376	-1480	-969	743	574	-363	-84
9381	-1568	-1103	613	574	-363	-84
9386	-1567	-1223	608	574	-363	-84
9391	-1498	-1224	709	574	-363	-84
9396	-1504	-1263	682	409	-297	46
9401	-1486	-1269	868	409	-297	46
9406	-1498	-1211	758	409	-297	46
9411	-1461	-1205	861	409	-297	46
9416	-1474	-1020	859	409	-297	46
9421	-1556	-968	787	409	-297	46
9426	-1505	-1055	805	96	-125	100
9431	-1436	-1063	834	96	-125	100
9436	-1499	-1084	879	96	-125	100
9441	-1465	-1068	904	96	-125	100
9446	-1403	-963	920	96	-125	100
9451	-1395	-930	968	96	-125	100
9456	-1376	-866	984	96	-125	100
9461	-1422	-912	993	-43	112	39
9466	-1442	-869	954	-43	112	39
9471	-1413	-909	967	-43	112	39
9476	-1369	-861	878	-43	112	39
9481	-1344	-872	950	-43	112	39
9486	-1327	-925	995	-43	112	39
9491	-1371	-900	875	-80	57	-147
9496	-1424	-928	922	-80	57	-147
9501	-1392	-917	932	-80	57	-147
9506	-1445	-845	871	-80	57	-147
9511	-1449	-882	904	-80	57	-147
9516	-1432	-925	919	-80	57	-147