time	accelerometer_x	accelerometer_y	accelerometer_z	gyroscope_x	gyroscope_y	gyroscope_z	
1	-18	-112	1930	-24	-3	-56
6	-10	-102	1917	-55	-42	-30
11	-8	-109	1913	-55	-42	-30
16	-13	-108	1918	-55	-42	-30
21	-6	-104	1927	-55	-42	-30
26	-4	-116	1908	-55	-42	-30
31	-7	-101	1924	-55	-42	-30
36	-14	-108	1933	-77	51	43
41	4	-105	1923	-77	51	43
46	0	-108	1918	-77	51	43
51	-10	-107	1904	-77	51	43
56	-2	-100	1926	-77	51	43
61	-3	-109	1925	-77	51	43
66	-1	-113	1931	-45	17	-27
71	-9	-105	1920	-45	17	-27
76	-5	-108	1918	-45	17	-27
81	-8	-104	1917	-45	17	-27
86	-3	-103	1908	-45	17	-27
91	-11	-108	1924	-45	17	-27
110	2	-98	1929	-45	17	-27
111	-3	-104	1921	-45	17	-27
116	-8	-113	1910	-21	-6	77
121	-16	-114	1907	-21	-6	77
126	-12	-108	1917	-47	12	-108
131	-7	-108	1920	-47	12	-108
136	-7	-105	1897	-47	12	-108
141	-15	-104	1925	-47	12	-108
146	-15	-107	1907	-47	12	-108
151	-5	-104	1913	-47	12	-108
156	-5	-122	1911	-47	12	-108
161	-5	-105	1926	-77	-29	-8
166	-12	-109	1920	-77	-29	-8
171	-9	-104	1912	-77	-29	-8
176	-9	-107	1914	-77	-29	-8
181	-15	-110	1921	-77	-29	-8
186	-9	-114	1917	-77	-29	-8
191	-4	-109	1927	-54	30	40
196	-3	-99	1921	-54	30	40
201	-10	-112	1930	-54	30	40
206	-8	-114	1904	-54	30	40
211	-6	-113	1924	-54	30	40
216	-10	-112	1920	-54	30	40
221	-13	-107	1918	-62	27	-45
226	-8	-112	1922	-62	27	-45
231	-2	-115	1914	-62	27	-45
236	-8	-107	1924	-62	27	-45
241	-10	-108	1918	-62	27	-45
246	-7	-101	1937	-62	27	-45
251	-4	-112	1912	-48	1	-12
256	-9	-101	1916	-48	1	-12
261	-9	-109	1922	-48	1	-12
266	-10	-109	1922	-48	1	-12
271	2	-124	1923	-48	1	-12
276	-4	-109	1917	-48	1	-12
281	-5	-102	1921	-29	12	-20
286	-9	-114	1929	-29	12	-20
291	-2	-104	1909	-29	12	-20
296	-8	-108	1919	-29	12	-20
301	-7	-103	1921	-29	12	-20
306	-5	-103	1940	-29	12	-20
311	-5	-106	1874	-29	12	-20
316	-14	-101	1899	-35	32	30
321	-2	-98	1932	-35	32	30
326	-4	-107	1930	-35	32	30
331	-2	-106	1942	-35	32	30
336	-1	-103	1941	-35	32	30
341	3	-108	1925	-35	32	30
346	-12	-108	1902	-19	-5	-61
351	-13	-101	1923	-19	-5	-61
356	-13	-109	1906	-19	-5	-61
361	-11	-105	1889	-19	-5	-61
366	0	-107	1925	-19	-5	-61
371	-6	-107	1946	-19	-5	-61
376	-2	-102	1910	-21	41	-1
381	-4	-109	1932	-21	41	-1
386	-10	-110	1902	-21	41	-1
391	-2	-105	1926	-21	41	-1
396	-8	-103	1916	-21	41	-1
401	-7	-103	1925	-21	41	-1
406	-4	-107	1934	-82	45	-1
411	0	-107	1904	-82	45	-1
416	-6	-106	1913	-82	45	-1
421	-1	-109	1926	-82	45	-1
426	-15	-107	1916	-82	45	-1
431	7	-109	1927	-82	45	-1
436	-8	-104	1924	-55	8	-37
441	-9	-106	1921	-55	8	-37
446	-8	-108	1927	-55	8	-37
451	4	-103	1917	-55	8	-37
456	-1	-110	1923	-55	8	-37
461	-9	-103	1931	-55	8	-37
466	-9	-111	1911	-55	8	-37
471	-1	-104	1935	-71	48	-56
476	-9	-102	1926	-71	48	-56
481	-6	-101	1921	-71	48	-56
486	-8	-101	1928	-71	48	-56
491	-7	-104	1910	-71	48	-56
496	-7	-99	1920	-71	48	-56
501	-10	-109	1917	-58	38	-49
506	-2	-108	1922	-58	38	-49
511	-12	-108	1930	-58	38	-49
516	-11	-106	1935	-58	38	-49
521	-15	-108	1914	-58	38	-49
526	-4	-112	1927	-58	38	-49
531	-11	-110	1932	-65	42	31
536	-10	-104	1927	-65	42	31
541	-2	-110	1912	-65	42	31
546	-13	-111	1924	-65	42	31
551	-11	-105	1927	-65	42	31
556	-7	-103	1904	-65	42	31
561	-8	-108	1929	-35	15	-30
566	-5	-96	1928	-35	15	-30
571	-2	-103	1928	-35	15	-30
576	-2	-104	1912	-35	15	-30
581	-9	-106	1925	-35	15	-30
586	-12	-108	1924	-35	15	-30
591	-14	-108	1921	-59	3	84
596	-6	-107	1929	-59	3	84
601	-5	-101	1913	-59	3	84
606	-12	-109	1915	-59	3	84
611	-17	-107	1918	-59	3	84
616	-6	-116	1926	-59	3	84
621	-8	-104	1918	-59	3	84
626	-7	-101	1914	-60	-3	-7
631	-11	-106	1918	-60	-3	-7
636	-14	-105	1934	-60	-3	-7
641	-8	-103	1922	-60	-3	-7
646	-8	-107	1913	-60	-3	-7
651	-5	-107	1934	-60	-3	-7
656	-11	-102	1925	-74	28	-21
661	-10	-113	1931	-74	28	-21
666	-6	-101	1909	-74	28	-21
671	-6	-106	1916	-74	28	-21
676	-4	-99	1929	-74	28	-21
681	-11	-107	1928	-74	28	-21
686	-7	-105	1915	-65	35	20
691	-12	-107	1921	-65	35	20
696	-9	-104	1921	-65	35	20
701	-7	-102	1922	-65	35	20
706	-18	-105	1913	-65	35	20
711	-7	-108	1928	-65	35	20
716	5	-100	1923	-39	-2	-77
721	-8	-108	1921	-39	-2	-77
726	-7	-105	1929	-39	-2	-77
731	-6	-111	1928	-39	-2	-77
736	-13	-103	1931	-39	-2	-77
741	-6	-113	1929	-39	-2	-77
746	-4	-102	1927	-58	28	77
751	-5	-105	1915	-58	28	77
756	-2	-110	1922	-58	28	77
761	-7	-110	1928	-58	28	77
766	-9	-107	1939	-58	28	77
771	-9	-102	1921	-58	28	77
776	-3	-106	1927	-58	28	77
781	-10	-104	1911	-12	-3	21
786	-6	-111	1934	-12	-3	21
791	-10	-109	1921	-12	-3	21
796	-9	-102	1920	-12	-3	21
801	-7	-106	1924	-12	-3	21
806	-11	-110	1917	-12	-3	21
811	-3	-99	1914	-15	-2	-4
816	-7	-106	1938	-15	-2	-4
821	-15	-105	1927	-15	-2	-4
826	-6	-110	1915	-15	-2	-4
831	1	-102	1916	-15	-2	-4
836	-10	-103	1912	-15	-2	-4
841	-4	-103	1919	-49	48	11
846	-2	-106	1917	-49	48	11
851	-9	-109	1933	-49	48	11
856	-5	-113	1918	-49	48	11
861	-5	-104	1922	-49	48	11
866	-9	-105	1916	-49	48	11
871	-4	-106	1915	-55	57	-26
876	-14	-110	1912	-55	57	-26
881	-8	-104	1904	-55	57	-26
886	-6	-106	1909	-55	57	-26
891	-16	-110	1925	-55	57	-26
896	-11	-102	1912	-55	57	-26
901	-5	-110	1931	-36	55	20
906	-8	-106	1927	-36	55	20
911	-10	-105	1922	-36	55	20
916	-3	-106	1915	-36	55	20
921	-1	-102	1913	-36	55	20
926	-14	-108	1915	-36	55	20
931	-11	-109	1913	-36	55	20
936	-4	-97	1926	-29	65	-95
941	1	-106	1924	-29	65	-95
946	-7	-102	1918	-29	65	-95
951	-7	-104	1928	-29	65	-95
956	-9	-106	1922	-29	65	-95
961	-14	-102	1901	-29	65	-95
966	-1	-107	1925	-16	17	55
971	5	-107	1917	-16	17	55
976	-4	-106	1931	-16	17	55
981	-5	-102	1902	-16	17	55
986	-5	-112	1933	-16	17	55
991	-8	-105	1918	-16	17	55
996	-20	-106	1921	5	-9	89
1001	-4	-100	1920	5	-9	89
1006	1	-104	1912	5	-9	89
1011	-4	-101	1928	5	-9	89
1016	-13	-114	1917	5	-9	89
1021	-3	-100	1926	5	-9	89
1026	-7	-105	1923	-32	24	3
1031	-8	-106	1907	-32	24	3
1036	-15	-112	1909	-32	24	3
1041	-8	-105	1915	-32	24	3
1046	-10	-103	1922	-32	24	3
1051	-9	-104	1920	-32	24	3
1056	-2	-109	1923	-41	5	27
1061	-8	-106	1904	-41	5	27
1066	-1	-112	1918	-41	5	27
1071	-15	-104	1917	-41	5	27
1076	-2	-102	1921	-41	5	27
1081	-8	-112	1930	-41	5	27
1086	-7	-101	1918	-41	5	27
1091	-8	-101	1932	-34	38	-10
1096	-4	-110	1924	-34	38	-10
1101	-7	-109	1925	-34	38	-10
1106	-17	-105	1921	-34	38	-10
1111	-10	-111	1909	-34	38	-10
1116	-4	-104	1923	-34	38	-10
1121	-13	-99	1918	-55	4	37
1126	-9	-103	1915	-55	4	37
1131	-13	-112	1920	-55	4	37
1136	-8	-101	1921	-55	4	37
1141	-5	-102	1919	-55	4	37
1146	-7	-103	1923	-55	4	37
1151	-12	-104	1923	-28	-23	-75
1156	-10	-107	1906	-28	-23	-75
1161	-5	-102	1928	-28	-23	-75
1166	-10	-108	1903	-28	-23	-75
1171	-6	-113	1923	-28	-23	-75
1176	-9	-99	1932	-28	-23	-75
1181	-8	-107	1914	-45	-8	78
1186	-12	-105	1930	-45	-8	78
1191	-8	-109	1914	-45	-8	78
1196	-4	-117	1922	-45	-8	78
1201	-3	-98	1917	-45	-8	78
1206	-10	-105	1907	-45	-8	78
1211	-10	-107	1932	-49	29	-62
1216	1	-104	1916	-49	29	-62
1221	-5	-104	1917	-49	29	-62
1226	-11	-106	1919	-49	29	-62
1231	1	-102	1917	-49	29	-62
1236	5	-108	1919	-49	29	-62
1241	-5	-103	1919	-49	29	-62
1246	-2	-96	1914	-57	-8	31
1251	-5	-114	1921	-57	-8	31
1256	-12	-102	1916	-57	-8	31
1261	-11	-98	1917	-57	-8	31
1266	-9	-104	1923	-57	-8	31
1271	-17	-103	1915	-57	-8	31
1276	-4	-108	1922	-63	21	-2
1281	-4	-104	1920	-63	21	-2
1286	-13	-107	1929	-63	21	-2
1291	-2	-99	1912	-63	21	-2
1296	-8	-106	1925	-63	21	-2
1301	-4	-98	1919	-63	21	-2
1306	-7	-106	1922	-73	-25	-30
1311	0	-101	1919	-73	-25	-30
1316	-10	-99	1930	-73	-25	-30
1321	-12	-91	1925	-73	-25	-30
1326	-7	-112	1910	-73	-25	-30
1331	-8	-103	1920	-73	-25	-30
1336	-15	-105	1908	-36	-6	87
1341	-12	-101	1918	-36	-6	87
1346	-14	-106	1930	-36	-6	87
1351	-2	-100	1918	-36	-6	87
1356	-16	-118	1910	-36	-6	87
1361	-11	-108	1928	-36	-6	87
1366	-18	-109	1925	-11	31	-112
1371	-8	-113	1921	-11	31	-112
1376	-5	-109	1926	-11	31	-112
1381	-9	-108	1920	-11	31	-112
1386	-8	-100	1920	-11	31	-112
1391	-7	-104	1929	-11	31	-112
1396	-11	-111	1922	-11	31	-112
1401	-4	-110	1919	-36	19	93
1406	-1	-101	1933	-36	19	93
1411	-8	-110	1918	-36	19	93
1416	-9	-104	1928	-36	19	93
1421	-9	-104	1924	-36	19	93
1426	-6	-101	1927	-36	19	93
1431	-6	-107	1934	-29	8	-58
1436	1	-104	1918	-29	8	-58
1441	-7	-113	1941	-29	8	-58
1446	-12	-99	1910	-29	8	-58
1451	-10	-106	1933	-29	8	-58
1456	-3	-103	1907	-29	8	-58
1461	2	-107	1919	-47	61	1
1466	-1	-107	1920	-47	61	1
1471	-1	-93	1911	-47	61	1
1476	-9	-107	1913	-47	61	1
1481	-12	-112	1922	-47	61	1
1486	-2	-106	1911	-47	61	1
1491	-4	-110	1920	-60	19	17
1496	-14	-105	1926	-60	19	17
1501	-5	-113	1921	-60	19	17
1506	-10	-112	1928	-60	19	17
1511	-12	-105	1922	-60	19	17
1516	-7	-103	1924	-60	19	17
1521	-8	-100	1929	-61	12	-1
1526	3	-106	1927	-61	12	-1
1531	-2	-96	1921	-61	12	-1
1536	-18	-104	1936	-61	12	-1
1541	-3	-103	1921	-61	12	-1
1546	-8	-106	1934	-61	12	-1
1551	-6	-100	1921	-61	12	-1
1556	-7	-95	1908	-70	25	-77
1561	-2	-106	1917	-70	25	-77
1566	-18	-107	1912	-70	25	-77
1571	-3	-107	1912	-70	25	-77
1576	-3	-104	1921	-70	25	-77
1581	-10	-107	1920	-70	25	-77
1586	-3	-107	1926	-42	-5	-87
1591	-3	-108	1904	-42	-5	-87
1596	-15	-101	1911	-42	-5	-87
1601	-6	-106	1910	-42	-5	-87
1606	-3	-100	1924	-42	-5	-87
1611	-2	-97	1918	-42	-5	-87
1616	-1	-104	1919	-39	-29	53
1621	-11	-107	1918	-39	-29	53
1626	-13	-100	1913	-39	-29	53
1631	-11	-98	1905	-39	-29	53
1636	-3	-95	1927	-39	-29	53
1641	0	-109	1928	-39	-29	53
1646	-9	-107	1912	-8	-13	-45
1651	-15	-108	1909	-8	-13	-45
1656	-2	-105	1914	-8	-13	-45
1661	-11	-112	1917	-8	-13	-45
1666	-7	-99	1922	-8	-13	-45
1671	-1	-101	1920	-8	-13	-45
1676	-12	-109	1909	-52	25	94
1681	-4	-103	1916	-52	25	94
1686	-9	-100	1932	-52	25	94
1691	-8	-114	1918	-52	25	94
1696	-12	-100	1922	-52	25	94
1701	1	-113	1917	-52	25	94
1706	0	-103	1907	-52	25	94
1711	-6	-103	1913	4	-2	-33
1716	-5	-101	1903	4	-2	-33
1721	-12	-99	1935	4	-2	-33
1726	-19	-107	1927	4	-2	-33
1731	-7	-102	1910	4	-2	-33
1736	-14	-95	1920	4	-2	-33
1741	-7	-105	1925	-42	25	-39
1746	-11	-104	1913	-42	25	-39
1751	-3	-109	1916	-42	25	-39
1756	-6	-106	1914	-42	25	-39
1761	-7	-103	1906	-42	25	-39
1766	-20	-103	1912	-42	25	-39
1771	-14	-104	1922	-60	39	-20
1776	0	-107	1927	-60	39	-20
1781	-8	-106	1933	-60	39	-20
1786	-5	-95	1916	-60	39	-20
1791	-12	-99	1905	-60	39	-20
1796	-13	-113	1909	-60	39	-20
1801	-10	-107	1922	-74	41	-59
1806	-7	-97	1917	-74	41	-59
1811	-8	-107	1928	-74	41	-59
1816	-6	-98	1920	-74	41	-59
1821	-14	-110	1921	-74	41	-59
1826	-17	-105	1918	-74	41	-59
1831	-10	-112	1928	-19	32	39
1836	-11	-106	1912	-19	32	39
1841	-6	-109	1914	-19	32	39
1846	-12	-98	1920	-19	32	39
1851	-2	-103	1911	-19	32	39
1856	-17	-105	1934	-19	32	39
1861	-5	-106	1911	-19	32	39
1866	-9	-104	1915	-22	-3	-1
1871	-12	-103	1919	-22	-3	-1
1876	-9	-107	1922	-22	-3	-1
1881	-6	-104	1923	-22	-3	-1
1886	-6	-105	1919	-22	-3	-1
1891	-10	-103	1914	-22	-3	-1
1896	-15	-104	1910	-18	35	-23
1901	-10	-104	1925	-18	35	-23
1906	-11	-94	1914	-18	35	-23
1911	-15	-113	1923	-18	35	-23
1916	-13	-103	1918	-18	35	-23
1921	-15	-103	1925	-18	35	-23
1926	-10	-104	1914	-39	-25	59
1931	-7	-107	1914	-39	-25	59
1936	-7	-107	1922	-39	-25	59
1941	-8	-110	1932	-39	-25	59
1946	-17	-101	1933	-39	-25	59
1951	-5	-100	1927	-39	-25	59
1956	-8	-100	1910	-29	11	-38
1961	-6	-104	1922	-29	11	-38
1966	-2	-101	1934	-29	11	-38
1971	-4	-109	1918	-29	11	-38
1976	-2	-109	1913	-29	11	-38
1981	-2	-106	1907	-29	11	-38
1986	-3	-100	1921	-53	57	-7
1991	-8	-104	1925	-53	57	-7
1996	-1	-104	1914	-53	57	-7
2001	-5	-111	1929	-53	57	-7
2006	-13	-101	1924	-53	57	-7
2011	-4	-112	1918	-53	57	-7
2016	-9	-105	1923	-53	57	-7
2021	-10	-101	1930	-86	45	-105
2026	-12	-98	1918	-86	45	-105
2031	-1	-105	1918	-86	45	-105
2036	-12	-100	1919	-86	45	-105
2041	-6	-105	1926	-86	45	-105
2046	-8	-102	1908	-86	45	-105
2051	-12	-103	1926	-39	-33	64
2056	-18	-112	1926	-39	-33	64
2061	-22	-105	1918	-39	-33	64
2066	-10	-101	1921	-39	-33	64
2071	-12	-103	1924	-39	-33	64
2076	-8	-106	1902	-39	-33	64
2081	-8	-99	1921	-18	1	2
2086	-7	-109	1927	-18	1	2
2091	-12	-103	1925	-18	1	2
2096	-13	-109	1925	-18	1	2
2101	-3	-98	1917	-18	1	2
2106	-6	-102	1898	-18	1	2
2111	-9	-105	1913	-26	-31	-5
2116	-4	-108	1908	-26	-31	-5
2121	-12	-104	1925	-26	-31	-5
2126	-7	-111	1918	-26	-31	-5
2131	-5	-100	1923	-26	-31	-5
2136	-13	-104	1917	-26	-31	-5
2141	-4	-112	1923	-51	-33	-7
2146	-22	-108	1930	-51	-33	-7
2151	-12	-110	1928	-51	-33	-7
2156	0	-105	1921	-51	-33	-7
2161	0	-107	1924	-51	-33	-7
2166	-8	-105	1928	-51	-33	-7
2171	-6	-103	1920	-51	-33	-7
2176	-8	-104	1917	-60	38	-48
2181	-2	-111	1919	-60	38	-48
2186	-10	-108	1921	-60	38	-48
2191	-5	-100	1918	-60	38	-48
2196	-9	-104	1919	-60	38	-48
2201	-3	-103	1932	-60	38	-48
2206	-5	-104	1922	-78	65	-2
2211	-2	-103	1924	-78	65	-2
2216	-6	-102	1921	-78	65	-2
2221	-14	-106	1937	-78	65	-2
2226	-3	-107	1935	-78	65	-2
2231	-6	-107	1915	-78	65	-2
2236	-10	-105	1913	-90	39	-105
2241	-5	-100	1918	-90	39	-105
2246	-8	-99	1920	-90	39	-105
2251	2	-94	1911	-90	39	-105
2256	-7	-111	1920	-90	39	-105
2261	-8	-107	1917	-90	39	-105
2266	-6	-95	1914	-39	9	68
2271	-3	-106	1909	-39	9	68
2276	-8	-102	1925	-39	9	68
2281	-7	-99	1924	-39	9	68
2286	-14	-99	1927	-39	9	68
2291	-8	-100	1923	-39	9	68
2296	-11	-104	1922	-42	-5	-121
2301	-6	-106	1918	-42	-5	-121
2306	-12	-103	1918	-42	-5	-121
2311	-2	-108	1919	-42	-5	-121
2316	-6	-104	1905	-42	-5	-121
2321	-9	-100	1917	-42	-5	-121
2326	-8	-101	1919	-42	-5	-121
2331	-1	-102	1926	-42	-2	-12
2336	-3	-109	1915	-42	-2	-12
2341	-6	-105	1918	-42	-2	-12
2346	-9	-97	1909	-42	-2	-12
2351	-15	-106	1923	-42	-2	-12
2356	-9	-98	1916	-42	-2	-12
2361	1	-110	1932	-51	12	11
2366	-5	-108	1910	-51	12	11
2371	-1	-104	1932	-51	12	11
2376	-13	-104	1916	-51	12	11
2381	-13	-110	1929	-51	12	11
2386	-12	-113	1929	-51	12	11
2391	-7	-112	1918	-84	-11	-33
2396	-12	-100	1918	-84	-11	-33
2401	-18	-112	1920	-84	-11	-33
2406	-10	-102	1913	-84	-11	-33
2411	-8	-109	1923	-84	-11	-33
2416	-4	-99	1924	-84	-11	-33
2421	-3	-112	1921	-90	11	72
2426	-6	-103	1928	-90	11	72
2431	-12	-110	1926	-90	11	72
2436	-10	-100	1914	-90	11	72
2441	-4	-111	1919	-90	11	72
2446	2	-103	1918	-90	11	72
2451	-6	-100	1929	-73	59	-12
2456	-17	-104	1916	-73	59	-12
2461	-4	-98	1921	-73	59	-12
2466	-6	-101	1907	-73	59	-12
2471	-7	-112	1924	-73	59	-12
2476	-11	-102	1909	-73	59	-12
2481	4	-101	1905	-73	59	-12
2486	0	-95	1902	-42	15	127
2491	-11	-96	1916	-42	15	127
2496	-12	-103	1920	-42	15	127
2501	-1	-106	1913	-42	15	127
2506	-9	-95	1922	-42	15	127
2511	-11	-102	1911	-42	15	127
2516	-7	-106	1902	-45	-22	-77
2521	-10	-101	1918	-45	-22	-77
2526	-6	-109	1919	-45	-22	-77
2531	-9	-102	1913	-45	-22	-77
2536	-6	-105	1916	-45	-22	-77
2541	-4	-108	1917	-45	-22	-77
2546	-8	-102	1898	-84	-8	-18
2551	-13	-110	1908	-84	-8	-18
2556	-12	-103	1905	-84	-8	-18
2561	-5	-106	1903	-84	-8	-18
2566	1	-104	1917	-84	-8	-18
2571	2	-97	1910	-84	-8	-18
2576	-8	-105	1910	1	-15	9
2581	-13	-101	1912	1	-15	9
2586	-6	-108	1919	1	-15	9
2591	-3	-101	1916	1	-15	9
2596	-4	-103	1919	1	-15	9
2601	-4	-100	1907	1	-15	9
2606	-14	-103	1916	27	32	-11
2611	-11	-109	1921	27	32	-11
2616	-6	-107	1930	27	32	-11
2621	-5	-107	1923	27	32	-11
2626	-6	-102	1917	27	32	-11
2631	3	-108	1933	27	32	-11
2636	-5	-94	1918	27	32	-11
2641	-4	-109	1911	-99	25	24
2646	-4	-102	1906	-99	25	24
2651	-5	-104	1907	-99	25	24
2656	-12	-95	1923	-99	25	24
2661	-8	-114	1924	-99	25	24
2666	-10	-101	1925	-99	25	24
2671	-6	-99	1925	5	24	-133
2676	-10	-101	1918	5	24	-133
2681	-9	-103	1913	5	24	-133
2686	-9	-104	1911	5	24	-133
2691	-1	-111	1924	5	24	-133
2696	-19	-103	1912	5	24	-133
2701	-1	-106	1923	-21	11	108
2706	-10	-103	1909	-21	11	108
2711	-12	-103	1921	-21	11	108
2716	-8	-109	1921	-21	11	108
2721	-14	-103	1925	-21	11	108
2726	-7	-101	1923	-21	11	108
2731	-8	-106	1917	-100	28	-38
2736	-11	-97	1925	-100	28	-38
2741	-3	-107	1927	-100	28	-38
2746	-6	-104	1905	-100	28	-38
2751	2	-100	1924	-100	28	-38
2756	-3	-109	1924	-100	28	-38
2761	-5	-105	1921	-51	11	-150
2766	7	-103	1927	-51	11	-150
2771	-5	-102	1924	-51	11	-150
2776	-12	-109	1914	-51	11	-150
2781	-5	-109	1924	-51	11	-150
2786	-8	-106	1921	-51	11	-150
2791	-14	-96	1917	-51	11	-150
2796	-15	-106	1911	-43	-11	-56
2801	-1	-108	1919	-43	-11	-56
2806	-3	-106	1906	-43	-11	-56
2811	3	-105	1921	-43	-11	-56
2816	-6	-99	1922	-43	-11	-56
2821	1	-95	1923	-43	-11	-56
2826	-9	-101	1924	-45	31	-27
2831	-18	-97	1916	-45	31	-27
2836	-10	-109	1924	-45	31	-27
2841	-12	-105	1923	-45	31	-27
2846	-13	-101	1939	-45	31	-27
2851	-7	-107	1918	-45	31	-27
2856	-8	-103	1930	-54	35	-26
2861	-9	-109	1920	-54	35	-26
2866	-13	-107	1923	-54	35	-26
2871	-10	-107	1909	-54	35	-26
2876	-7	-107	1924	-54	35	-26
2881	-4	-110	1937	-54	35	-26
2886	-1	-105	1904	-51	2	-80
2891	0	-104	1919	-51	2	-80
2896	-14	-102	1919	-51	2	-80
2901	-10	-103	1926	-51	2	-80
2906	-8	-105	1924	-51	2	-80
2911	-13	-102	1910	-51	2	-80
2916	-17	-104	1937	-28	9	74
2921	-11	-103	1921	-28	9	74
2926	-12	-104	1904	-28	9	74
2931	4	-107	1919	-28	9	74
2936	1	-111	1934	-28	9	74
2941	-5	-108	1928	-28	9	74
2946	-9	-102	1930	-28	9	74
2951	-11	-103	1926	-38	2	23
2956	-10	-102	1917	-38	2	23
2961	-7	-107	1922	-38	2	23
2966	-4	-104	1919	-38	2	23
2971	-10	-102	1905	-38	2	23
2976	-10	-102	1910	-38	2	23
2981	-7	-109	1923	8	8	17
2986	-7	-108	1921	8	8	17
2991	4	-101	1919	8	8	17
2996	-5	-101	1927	8	8	17
3001	-9	-107	1912	8	8	17
3006	-16	-96	1920	8	8	17
3011	-8	-105	1928	-62	25	-20
3016	-10	-95	1917	-62	25	-20
3021	-7	-104	1918	-62	25	-20
3026	-17	-105	1903	-62	25	-20
3031	-15	-101	1920	-62	25	-20
3036	-4	-95	1919	-62	25	-20
3041	-12	-111	1918	-93	37	-42
3046	0	-110	1910	-93	37	-42
3051	-11	-102	1929	-93	37	-42
3056	-7	-103	1922	-93	37	-42
3061	-1	-99	1920	-93	37	-42
3066	-6	-101	1912	-93	37	-42
3071	-6	-103	1918	-77	98	-23
3076	-20	-105	1922	-77	98	-23
3081	-15	-101	1923	-77	98	-23
3086	-3	-103	1902	-77	98	-23
3091	-10	-108	1922	-77	98	-23
3096	-9	-105	1928	-77	98	-23
3101	-5	-108	1926	-77	98	-23
3106	-13	-103	1941	-77	-5	-89
3111	-5	-97	1916	-77	-5	-89
3116	-5	-108	1905	-77	-5	-89
3121	-10	-99	1908	-77	-5	-89
3126	-4	-101	1916	-77	-5	-89
3131	-5	-101	1920	-77	-5	-89
3136	-12	-102	1930	-48	-10	52
3141	2	-108	1915	-48	-10	52
3146	-4	-106	1919	-48	-10	52
3151	-15	-111	1912	-48	-10	52
3156	-9	-100	1923	-48	-10	52
3161	-9	-100	1925	-48	-10	52
3166	-14	-99	1925	-28	-13	14
3171	-9	-102	1914	-28	-13	14
3176	-9	-101	1911	-28	-13	14
3181	-4	-101	1916	-28	-13	14
3186	-6	-107	1907	-28	-13	14
3191	-7	-106	1931	-28	-13	14
3196	-8	-110	1919	-47	-28	-15
3201	-12	-97	1921	-47	-28	-15
3206	-2	-99	1909	-47	-28	-15
3211	-10	-97	1921	-47	-28	-15
3216	-7	-103	1938	-47	-28	-15
3221	-11	-105	1916	-47	-28	-15
3226	-5	-109	1913	-48	-29	64
3231	-9	-103	1904	-48	-29	64
3236	-2	-99	1912	-48	-29	64
3241	-9	-105	1922	-48	-29	64
3246	-5	-102	1917	-48	-29	64
3251	-11	-101	1918	-48	-29	64
3256	-1	-106	1912	-48	-29	64
3261	2	-102	1936	-12	-19	-77
3266	-4	-103	1920	-12	-19	-77
3271	-8	-107	1922	-12	-19	-77
3276	-21	-109	1933	-12	-19	-77
3281	-8	-101	1924	-12	-19	-77
3286	0	-105	1916	-12	-19	-77
3291	-6	-102	1929	-60	27	-4
3296	-5	-105	1919	-60	27	-4
3301	-14	-105	1929	-60	27	-4
3306	-5	-106	1937	-60	27	-4
3311	-9	-99	1904	-60	27	-4
3316	2	-112	1920	-60	27	-4
3321	-7	-97	1917	-25	55	-97
3326	-13	-107	1909	-25	55	-97
3331	-16	-105	1915	-25	55	-97
3336	-8	-104	1917	-25	55	-97
3341	-7	-96	1924	-25	55	-97
3346	-9	-99	1917	-25	55	-97
3351	-4	-108	1935	5	8	17
3356	-9	-95	1917	5	8	17
3361	-4	-97	1931	5	8	17
3366	-3	-105	1936	5	8	17
3371	0	-107	1921	5	8	17
3376	-6	-97	1914	5	8	17
3381	-5	-108	1912	-29	18	-115
3386	-8	-105	1905	-29	18	-115
3391	-10	-96	1920	-29	18	-115
3396	1	-109	1917	-29	18	-115
3401	1	-105	1929	-29	18	-115
3406	-7	-105	1930	-29	18	-115
3411	-7	-102	1945	-29	18	-115
3416	-12	-102	1927	-47	21	-30
3421	-10	-110	1915	-47	21	-30
3426	-6	-102	1928	-47	21	-30
3431	4	-105	1919	-47	21	-30
3436	-7	-110	1928	-47	21	-30
3441	-4	-102	1918	-47	21	-30
3446	-14	-108	1923	-33	-10	-11
3451	-10	-97	1922	-33	-10	-11
3456	-5	-102	1916	-33	-10	-11
3461	-1	-106	1926	-33	-10	-11
3466	-12	-106	1920	-33	-10	-11
3471	-13	-107	1908	-33	-10	-11
3476	-5	-114	1926	-67	27	-74
3481	-10	-101	1920	-67	27	-74
3486	-2	-100	1909	-67	27	-74
3491	-5	-104	1913	-67	27	-74
3496	-11	-106	1925	-67	27	-74
3501	-8	-97	1914	-67	27	-74
3506	-10	-106	1917	-72	-2	71
3511	-9	-102	1927	-72	-2	71
3516	-5	-103	1916	-72	-2	71
3521	-4	-102	1914	-72	-2	71
3526	-8	-110	1917	-72	-2	71
3531	-9	-103	1916	-72	-2	71
3536	-6	-105	1916	-52	8	-146
3541	-11	-105	1920	-52	8	-146
3546	1	-103	1921	-52	8	-146
3551	0	-105	1914	-52	8	-146
3556	-15	-99	1942	-52	8	-146
3561	-14	-105	1919	-52	8	-146
3566	-8	-103	1926	-52	8	-146
3571	-7	-103	1915	-48	8	130
3576	-8	-108	1926	-48	8	130
3581	-5	-95	1923	-48	8	130
3586	-10	-103	1911	-48	8	130
3591	-16	-108	1919	-48	8	130
3596	-10	-113	1930	-48	8	130
3601	-7	-103	1925	-40	-21	37
3606	-4	-101	1912	-40	-21	37
3611	-6	-95	1925	-40	-21	37
3616	-7	-108	1928	-40	-21	37
3621	-16	-109	1923	-40	-21	37
3626	-13	-108	1917	-40	-21	37
3631	1	-103	1919	-49	-55	-48
3636	-10	-109	1924	-49	-55	-48
3641	-6	-101	1914	-49	-55	-48
3646	-11	-104	1915	-49	-55	-48
3651	-4	-113	1907	-49	-55	-48
3656	-5	-109	1926	-49	-55	-48
3661	-12	-98	1921	-31	27	24
3666	-6	-97	1909	-31	27	24
3671	-11	-104	1933	-31	27	24
3676	-9	-104	1922	-31	27	24
3681	-11	-111	1935	-31	27	24
3686	-4	-107	1907	-31	27	24
3691	-11	-106	1919	-43	18	-42
3696	-2	-108	1922	-43	18	-42
3701	-2	-101	1921	-43	18	-42
3706	-14	-104	1930	-43	18	-42
3711	-12	-106	1937	-43	18	-42
3716	-6	-110	1915	-43	18	-42
3721	1	-105	1915	-43	18	-42
3726	-13	-106	1916	-79	-15	61
3731	0	-105	1912	-79	-15	61
3736	-15	-104	1918	-79	-15	61
3741	-2	-103	1920	-79	-15	61
3746	-14	-111	1929	-79	-15	61
3751	-7	-98	1922	-79	-15	61
3756	-4	-108	1923	-21	24	-128
3761	-12	-97	1926	-21	24	-128
3766	-10	-101	1929	-21	24	-128
3771	-2	-104	1933	-21	24	-128
3776	-1	-103	1910	-21	24	-128
3781	-12	-101	1921	-21	24	-128
3786	-8	-104	1926	-34	42	93
3791	-6	-105	1918	-34	42	93
3796	-4	-110	1916	-34	42	93
3801	-12	-101	1905	-34	42	93
3806	5	-108	1907	-34	42	93
3811	-3	-102	1922	-34	42	93
3816	-9	-106	1912	-29	2	-77
3821	3	-110	1924	-29	2	-77
3826	-4	-101	1903	-29	2	-77
3831	-5	-104	1911	-29	2	-77
3836	-1	-106	1928	-29	2	-77
3841	-12	-91	1921	-29	2	-77
3846	-13	-105	1918	-34	55	17
3851	-7	-107	1907	-34	55	17
3856	-14	-106	1929	-34	55	17
3861	-3	-109	1922	-34	55	17
3866	3	-100	1919	-34	55	17
3871	-7	-104	1923	-34	55	17
3876	-11	-105	1913	-34	55	17
3881	-9	-110	1924	-22	38	30
3886	0	-100	1914	-22	38	30
3891	-4	-101	1917	-22	38	30
3896	-15	-103	1916	-22	38	30
3901	-12	-101	1903	-22	38	30
3906	-15	-109	1919	-22	38	30
3911	-4	-101	1920	-32	-33	-27
3916	-11	-104	1919	-32	-33	-27
3921	-6	-102	1915	-32	-33	-27
3926	-1	-106	1907	-32	-33	-27
3931	-11	-100	1905	-32	-33	-27
3936	-2	-105	1920	-32	-33	-27
3941	-1	-103	1918	-30	35	43
3946	-17	-97	1922	-30	35	43
3951	0	-100	1919	-30	35	43
3956	-10	-105	1924	-30	35	43
3961	-4	-99	1924	-30	35	43
3966	-6	-102	1924	-30	35	43
3971	0	-103	1925	0	-3	-80
3976	-4	-102	1928	0	-3	-80
3981	1	-102	1923	0	-3	-80
3986	-9	-105	1901	0	-3	-80
3991	-11	-103	1910	0	-3	-80
3996	-13	-102	1910	0	-3	-80
4001	-14	-107	1923	-31	4	77
4006	-2	-107	1915	-31	4	77
4011	-12	-104	1918	-31	4	77
4016	-8	-94	1913	-31	4	77
4021	-12	-102	1912	-31	4	77
4026	-11	-106	1910	-31	4	77
4031	-7	-104	1918	-31	4	77
4036	-5	-99	1921	-6	-13	-40
4041	-7	-109	1919	-6	-13	-40
4046	-11	-101	1910	-6	-13	-40
4051	-10	-105	1924	-6	-13	-40
4056	-6	-108	1902	-6	-13	-40
4061	-10	-105	1914	-6	-13	-40
4066	-9	-91	1909	-38	-23	-17
4071	-7	-102	1905	-38	-23	-17
4076	-12	-108	1916	-38	-23	-17
4081	-3	-104	1905	-38	-23	-17
4086	-2	-105	1921	-38	-23	-17
4091	-14	-105	1916	-38	-23	-17
4096	-7	-106	1910	-80	2	-46
4101	-11	-102	1907	-80	2	-46
4106	2	-111	1917	-80	2	-46
4111	-1	-107	1921	-80	2	-46
4116	-15	-105	1926	-80	2	-46
4121	-5	-100	1913	-80	2	-46
4126	-5	-106	1897	-74	47	-18
4131	-5	-108	1897	-74	47	-18
4136	-10	-104	1916	-74	47	-18
4141	-11	-97	1919	-74	47	-18
4146	-6	-102	1920	-74	47	-18
4151	-2	-99	1922	-74	47	-18
4156	-8	-98	1931	-35	15	115
4161	1	-102	1921	-35	15	115
4166	-13	-102	1909	-35	15	115
4171	-5	-103	1916	-35	15	115
4176	-7	-105	1919	-35	15	115
4181	0	-111	1920	-35	15	115
4186	-14	-101	1918	-35	15	115
4191	-10	-107	1912	-2	-19	-96
4196	-11	-103	1911	-2	-19	-96
4201	-3	-97	1922	-2	-19	-96
4206	-7	-99	1925	-2	-19	-96
4211	-11	-103	1921	-2	-19	-96
4216	-14	-95	1917	-2	-19	-96
4221	-7	-105	1926	-40	-22	80
4226	-11	-94	1917	-40	-22	80
4231	-5	-98	1916	-40	-22	80
4236	-3	-110	1922	-40	-22	80
4241	-6	-105	1919	-40	-22	80
4246	-14	-96	1913	-40	-22	80
4251	-5	-108	1906	-8	-5	-15
4256	-12	-106	1921	-8	-5	-15
4261	-7	-116	1922	-8	-5	-15
4266	-7	-102	1917	-8	-5	-15
4271	-1	-107	1914	-8	-5	-15
4276	-7	-106	1932	-8	-5	-15
4281	-8	-109	1919	-14	-29	-15
4286	-9	-100	1914	-14	-29	-15
4291	-10	-94	1902	-14	-29	-15
4296	-5	-98	1918	-14	-29	-15
4301	-14	-100	1924	-14	-29	-15
4306	-7	-103	1926	-14	-29	-15
4311	-10	-104	1920	-82	88	-46
4316	-9	-105	1928	-82	88	-46
4321	1	-104	1923	-82	88	-46
4326	-3	-99	1914	-82	88	-46
4331	-10	-105	1917	-82	88	-46
4336	-11	-100	1921	-82	88	-46
4341	-12	-102	1928	-82	88	-46
4346	-5	-109	1923	-78	-1	-48
4351	-5	-109	1912	-78	-1	-48
4356	-9	-108	1916	-78	-1	-48
4361	-8	-100	1916	-78	-1	-48
4366	-18	-103	1908	-78	-1	-48
4371	-11	-97	1921	-78	-1	-48
4376	-12	-105	1925	-67	21	23
4381	6	-107	1907	-67	21	23
4386	-4	-104	1929	-67	21	23
4391	-11	-103	1916	-67	21	23
4396	-11	-99	1917	-67	21	23
4401	-4	-105	1920	-67	21	23
4406	-5	-106	1914	-46	44	-111
4411	-12	-104	1912	-46	44	-111
4416	0	-103	1926	-46	44	-111
4421	-9	-95	1916	-46	44	-111
4426	-18	-108	1919	-46	44	-111
4431	-3	-93	1925	-46	44	-111
4436	-8	-102	1929	-22	-11	1
4441	-8	-106	1931	-22	-11	1
4446	-8	-103	1923	-22	-11	1
4451	-9	-111	1932	-22	-11	1
4456	-14	-107	1923	-22	-11	1
4461	-4	-108	1916	-22	-11	1
4466	-9	-105	1917	-38	64	-23
4471	-5	-109	1917	-38	64	-23
4476	-7	-103	1917	-38	64	-23
4481	-13	-101	1926	-38	64	-23
4486	-12	-104	1930	-38	64	-23
4491	-7	-108	1929	-38	64	-23
4496	-11	-108	1924	-38	64	-23
4501	-4	-104	1919	-47	12	-29
4506	-20	-105	1924	-47	12	-29
4511	-7	-107	1929	-47	12	-29
4516	-8	-104	1917	-47	12	-29
4521	-6	-103	1927	-47	12	-29
4526	-6	-100	1927	-47	12	-29
4531	0	-108	1925	-41	-17	46
4536	-7	-104	1915	-41	-17	46
4541	-16	-108	1914	-41	-17	46
4546	-10	-107	1915	-41	-17	46
4551	-9	-100	1916	-41	-17	46
4556	-11	-101	1914	-41	-17	46
4561	-11	-99	1916	-39	2	-97
4566	-15	-102	1914	-39	2	-97
4571	-16	-112	1923	-39	2	-97
4576	-10	-105	1914	-39	2	-97
4581	-8	-104	1928	-39	2	-97
4586	-4	-99	1922	-39	2	-97
4591	-12	-107	1917	-71	34	36
4596	-7	-100	1917	-71	34	36
4601	-8	-98	1913	-71	34	36
4606	-7	-103	1924	-71	34	36
4611	-10	-105	1939	-71	34	36
4616	-5	-102	1922	-71	34	36
4621	-9	-108	1918	-28	-52	33
4626	-7	-106	1925	-28	-52	33
4631	-4	-102	1922	-28	-52	33
4636	-1	-106	1922	-28	-52	33
4641	-5	-107	1914	-28	-52	33
4646	-9	-107	1905	-28	-52	33
4651	-10	-108	1924	-28	-52	33
4656	-14	-99	1912	4	18	46
4661	-9	-110	1914	4	18	46
4666	-9	-102	1933	4	18	46
4671	0	-104	1920	4	18	46
4676	-1	-102	1903	4	18	46
4681	-10	-109	1925	4	18	46
4686	-13	-103	1920	-24	22	49
4691	-9	-98	1924	-24	22	49
4696	-8	-108	1924	-24	22	49
4701	-8	-98	1916	-24	22	49
4706	-2	-111	1915	-24	22	49
4711	-14	-105	1926	-24	22	49
4716	-4	-106	1911	-42	22	-36
4721	-13	-106	1925	-42	22	-36
4726	-3	-96	1913	-42	22	-36
4731	-13	-105	1922	-42	22	-36
4736	-3	-104	1911	-42	22	-36
4741	-15	-103	1923	-42	22	-36
4746	-3	-101	1926	-48	-5	67
4751	-9	-109	1915	-48	-5	67
4756	-2	-99	1909	-48	-5	67
4761	0	-99	1915	-48	-5	67
4766	-16	-97	1925	-48	-5	67
4771	-7	-110	1924	-48	-5	67
4776	-10	-97	1922	-25	-8	-12
4781	-7	-105	1917	-25	-8	-12
4786	-9	-102	1925	-25	-8	-12
4791	-6	-104	1914	-25	-8	-12
4796	-9	-108	1902	-25	-8	-12
4801	-8	-108	1928	-25	-8	-12
4806	-6	-94	1916	-25	-8	-12
4811	-5	-102	1921	-48	5	65
4816	-2	-104	1917	-48	5	65
4821	-8	-99	1930	-48	5	65
4826	-15	-110	1903	-48	5	65
4831	-11	-110	1915	-48	5	65
4836	-6	-104	1932	-48	5	65
4841	-4	-105	1928	-68	44	-92
4846	-3	-100	1917	-68	44	-92
4851	-6	-107	1929	-68	44	-92
4856	-10	-103	1910	-68	44	-92
4861	-15	-108	1921	-68	44	-92
4866	-5	-99	1923	-68	44	-92
4871	-6	-101	1914	-28	41	74
4876	0	-112	1934	-28	41	74
4881	-10	-107	1920	-28	41	74
4886	-12	-103	1927	-28	41	74
4891	-13	-106	1910	-28	41	74
4896	0	-111	1906	-28	41	74
4901	-4	-104	1908	-24	18	42
4906	-4	-109	1924	-24	18	42
4911	-17	-104	1915	-24	18	42
4916	-2	-112	1928	-24	18	42
4921	-13	-109	1914	-24	18	42
4926	-12	-109	1931	-24	18	42
4931	-8	-107	1923	-61	-12	-1
4936	-6	-105	1923	-61	-12	-1
4941	-4	-103	1918	-61	-12	-1
4946	-16	-107	1922	-61	-12	-1
4951	-10	-99	1924	-61	-12	-1
4956	-8	-105	1923	-61	-12	-1
4961	-6	-108	1927	-61	-12	-1
4966	-6	-106	1917	-73	4	37
4971	-7	-100	1916	-73	4	37
4976	-2	-105	1915	-73	4	37
4981	-5	-105	1917	-73	4	37
4986	-6	-102	1917	-73	4	37
4991	-7	-114	1922	-73	4	37
4996	-9	-105	1916	-50	31	-36
5001	-14	-108	1912	-50	31	-36
5006	-7	-112	1929	-50	31	-36
5011	-8	-105	1915	-50	31	-36
5016	-8	-109	1931	-50	31	-36
5021	-11	-105	1926	-50	31	-36
5026	-6	-108	1917	-52	0	59
5031	-10	-105	1926	-52	0	59
5036	-4	-102	1913	-52	0	59
5041	-14	-99	1917	-52	0	59
5046	-4	-110	1922	-52	0	59
5051	3	-106	1919	-52	0	59
5056	-8	-110	1921	-39	-7	-92
5061	-2	-106	1917	-39	-7	-92
5066	-1	-110	1925	-39	-7	-92
5071	-6	-109	1927	-39	-7	-92
5076	-10	-108	1919	-39	-7	-92
5081	-8	-110	1911	-39	-7	-92
5086	-14	-104	1905	-46	52	75
5091	-12	-98	1934	-46	52	75
5096	-8	-104	1918	-46	52	75
5101	-9	-106	1936	-46	52	75
5106	-12	-110	1920	-46	52	75
5111	-11	-101	1908	-46	52	75
5116	-8	-106	1923	-46	52	75
5121	-11	-109	1907	-51	-33	-17
5126	-8	-106	1904	-51	-33	-17
5131	-6	-98	1918	-51	-33	-17
5136	-12	-99	1919	-51	-33	-17
5141	-10	-101	1921	-51	-33	-17
5146	-9	-103	1915	-51	-33	-17
5151	-7	-104	1917	-55	57	-30
5156	-7	-95	1913	-55	57	-30
5161	-5	-104	1923	-55	57	-30
5166	-8	-110	1917	-55	57	-30
5171	-12	-100	1915	-55	57	-30
5176	-9	-100	1924	-55	57	-30
5181	-3	-103	1914	-32	51	-30
5186	-9	-101	1923	-32	51	-30
5191	-7	-99	1922	-32	51	-30
5196	-3	-101	1926	-32	51	-30
5201	-11	-108	1920	-32	51	-30
5206	-15	-105	1913	-32	51	-30
5211	-17	-98	1924	-77	44	-37
5216	-10	-96	1914	-77	44	-37
5221	-8	-111	1917	-77	44	-37
5226	-7	-101	1914	-77	44	-37
5231	-13	-105	1922	-77	44	-37
5236	-11	-103	1904	-77	44	-37
5241	-15	-105	1935	-51	-49	159
5246	-7	-107	1909	-51	-49	159
5251	0	-103	1921	-51	-49	159
5256	1	-99	1910	-51	-49	159
5261	-14	-106	1923	-51	-49	159
5266	-18	-106	1919	-51	-49	159
5271	-10	-105	1917	-51	-49	159
5276	-9	-110	1930	-13	-3	-97
5281	-12	-100	1921	-13	-3	-97
5286	-12	-100	1900	-13	-3	-97
5291	-8	-96	1925	-13	-3	-97
5296	-8	-109	1932	-13	-3	-97
5301	-11	-104	1919	-13	-3	-97
5306	-14	-104	1927	-34	1	37
5311	-8	-102	1908	-34	1	37
5316	-1	-99	1925	-34	1	37
5321	-13	-107	1901	-34	1	37
5326	-6	-102	1925	-34	1	37
5331	-2	-98	1917	-34	1	37
5336	-8	-107	1927	-43	-13	-15
5341	-4	-97	1918	-43	-13	-15
5346	-9	-107	1911	-43	-13	-15
5351	-8	-107	1919	-43	-13	-15
5356	-5	-109	1915	-43	-13	-15
5361	-14	-104	1931	-43	-13	-15
5366	-4	-103	1913	-41	17	-17
5371	0	-102	1914	-41	17	-17
5376	-10	-107	1914	-41	17	-17
5381	-7	-104	1913	-41	17	-17
5386	-1	-108	1914	-41	17	-17
5391	-7	-104	1919	-41	17	-17
5396	-12	-111	1929	-58	34	-93
5401	-12	-101	1924	-58	34	-93
5406	-10	-104	1912	-58	34	-93
5411	-14	-95	1919	-58	34	-93
5416	2	-103	1919	-58	34	-93
5421	-3	-99	1914	-58	34	-93
5426	2	-102	1914	-58	34	-93
5431	-7	-101	1929	-79	-2	-2
5436	-10	-102	1913	-79	-2	-2
5441	-8	-105	1931	-79	-2	-2
5446	-14	-96	1922	-79	-2	-2
5451	-9	-105	1934	-79	-2	-2
5456	-3	-111	1913	-79	-2	-2
5461	-8	-99	1927	-51	39	-20
5466	-9	-108	1924	-51	39	-20
5471	-10	-103	1911	-51	39	-20
5476	-3	-106	1915	-51	39	-20
5481	-5	-106	1926	-51	39	-20
5486	-11	-111	1919	-51	39	-20
5491	-10	-104	1912	-51	34	-65
5496	-9	-109	1913	-51	34	-65
5501	-6	-105	1926	-51	34	-65
5506	-3	-108	1917	-51	34	-65
5511	-7	-103	1925	-51	34	-65
5516	-7	-109	1923	-51	34	-65
5521	-4	-97	1919	-34	2	89
5526	-8	-103	1933	-34	2	89
5531	-3	-104	1924	-34	2	89
5536	-4	-100	1918	-34	2	89
5541	-6	-105	1917	-34	2	89
5549	-3	-102	1917	-34	2	89
5551	-11	-104	1914	-54	28	-77
5556	-11	-113	1914	-54	28	-77
5561	-4	-101	1916	-54	28	-77
5566	-2	-107	1909	-54	28	-77
5571	-5	-106	1920	-54	28	-77
5576	-6	-104	1919	-54	28	-77
5581	4	-111	1916	-54	28	-77
5586	-5	-103	1924	-2	24	-12
5591	-2	-104	1934	-2	24	-12
5596	-7	-98	1920	-2	24	-12
5601	-6	-101	1914	-2	24	-12
5606	-7	-97	1920	-2	24	-12
5611	-11	-103	1922	-2	24	-12
5616	1	-105	1918	-57	-15	-75
5621	-6	-100	1909	-57	-15	-75
5626	0	-100	1914	-57	-15	-75
5631	-6	-97	1920	-57	-15	-75
5636	-14	-106	1909	-57	-15	-75
5641	-8	-105	1934	-57	-15	-75
5646	2	-100	1917	-70	58	-26
5651	-5	-109	1919	-70	58	-26
5656	-2	-104	1898	-70	58	-26
5661	-9	-111	1920	-70	58	-26
5666	-7	-109	1919	-70	58	-26
5671	-7	-101	1929	-70	58	-26
5676	-12	-106	1926	-58	-8	29
5681	-10	-103	1922	-58	-8	29
5686	0	-106	1927	-58	-8	29
5691	-9	-102	1928	-58	-8	29
5696	-5	-107	1918	-58	-8	29
5701	-7	-107	1932	-58	-8	29
5706	-7	-102	1921	-25	2	-97
5711	1	-98	1936	-25	2	-97
5716	-11	-98	1918	-25	2	-97
5721	-15	-101	1919	-25	2	-97
5726	-14	-107	1929	-25	2	-97
5731	-13	-94	1916	-25	2	-97
5736	-9	-106	1921	-25	2	-97
5741	-14	-98	1919	-51	29	26
5746	-6	-101	1925	-51	29	26
5751	-17	-108	1917	-51	29	26
5756	-16	-111	1927	-51	29	26
5761	-6	-106	1917	-51	29	26
5766	-13	-111	1919	-51	29	26
5771	-7	-99	1924	-22	45	14
5776	-12	-106	1919	-22	45	14
5781	-11	-103	1924	-22	45	14
5786	-5	-107	1912	-22	45	14
5791	-4	-98	1906	-22	45	14
5796	-3	-105	1924	-22	45	14
5801	-5	-112	1905	-37	14	-43
5806	-3	-99	1931	-37	14	-43
5811	-3	-97	1928	-37	14	-43
5816	-9	-106	1933	-37	14	-43
5821	-12	-106	1923	-37	14	-43
5826	-5	-110	1911	-37	14	-43
5831	-1	-103	1937	-28	-3	42
5836	-14	-96	1914	-28	-3	42
5841	-9	-101	1917	-28	-3	42
5846	-9	-108	1914	-28	-3	42
5851	-11	-102	1916	-28	-3	42
5856	-9	-107	1912	-28	-3	42
5861	-9	-98	1899	-28	69	-90
5866	-12	-102	1916	-28	69	-90
5871	-9	-106	1931	-28	69	-90
5876	-12	-102	1926	-28	69	-90
5881	-5	-102	1939	-28	69	-90
5886	-1	-103	1919	-28	69	-90
5891	-11	-101	1917	-28	69	-90
5896	-6	-98	1900	-68	62	75
5901	-11	-107	1927	-68	62	75
5906	-2	-103	1925	-68	62	75
5911	-10	-103	1916	-68	62	75
5916	0	-109	1921	-68	62	75
5921	-14	-108	1916	-68	62	75
5926	-4	-103	1917	-49	29	-140
5931	-11	-110	1928	-49	29	-140
5936	-6	-100	1925	-49	29	-140
5941	-2	-107	1937	-49	29	-140
5946	-3	-100	1928	-49	29	-140
5951	-12	-104	1917	-49	29	-140
5956	-5	-107	1917	-2	-29	-12
5961	-7	-105	1910	-2	-29	-12
5966	-15	-109	1912	-2	-29	-12
5971	-3	-109	1923	-2	-29	-12
5976	-5	-100	1909	-2	-29	-12
5981	-14	-103	1927	-2	-29	-12
5986	-11	-105	1919	-19	-22	58
5991	-6	-98	1918	-19	-22	58
5996	-4	-103	1918	-19	-22	58
6001	-7	-101	1918	-19	-22	58
6006	-8	-111	1928	-19	-22	58
6011	-14	-109	1916	-19	-22	58
6016	-9	-104	1916	-65	2	-24
6021	-1	-108	1912	-65	2	-24
6026	-8	-100	1918	-65	2	-24
6031	0	-105	1924	-65	2	-24
6036	-5	-102	1921	-65	2	-24
6041	-1	-102	1910	-65	2	-24
6046	-10	-101	1905	-65	2	-24
6051	-17	-103	1916	-49	-25	31
6056	-3	-105	1917	-49	-25	31
6061	1	-105	1927	-49	-25	31
6066	-10	-110	1909	-49	-25	31
6071	-11	-108	1919	-49	-25	31
6076	-4	-102	1910	-49	-25	31
6081	-17	-103	1911	-47	24	-96
6086	-7	-101	1916	-47	24	-96
6091	-7	-103	1925	-47	24	-96
6096	-11	-99	1910	-47	24	-96
6101	-7	-111	1922	-47	24	-96
6106	-8	-103	1924	-47	24	-96
6111	3	-100	1917	-45	8	70
6116	-6	-101	1927	-45	8	70
6121	-10	-104	1917	-45	8	70
6126	-11	-109	1908	-45	8	70
6131	-1	-97	1913	-45	8	70
6136	2	-100	1923	-45	8	70
6141	-10	-98	1924	-52	22	-106
6146	-12	-103	1919	-52	22	-106
6151	-11	-106	1935	-52	22	-106
6156	-6	-102	1921	-52	22	-106
6161	-14	-96	1915	-52	22	-106
6166	-9	-107	1919	-52	22	-106
6171	1	-101	1918	-31	37	87
6176	-3	-108	1911	-31	37	87
6181	-4	-105	1921	-31	37	87
6186	-12	-101	1909	-31	37	87
6191	-11	-103	1916	-31	37	87
6196	-7	-106	1907	-31	37	87
6201	-5	-106	1918	-31	37	87
6206	-3	-109	1924	-17	-2	20
6211	-1	-111	1916	-17	-2	20
6216	-4	-105	1907	-17	-2	20
6221	-8	-101	1921	-17	-2	20
6226	-12	-100	1919	-17	-2	20
6231	-4	-102	1912	-17	-2	20
6236	-11	-105	1917	-46	8	-67
6241	-3	-102	1912	-46	8	-67
6246	-9	-101	1913	-46	8	-67
6251	-6	-102	1927	-46	8	-67
6256	-1	-97	1922	-46	8	-67
6261	-12	-98	1916	-46	8	-67
6266	-6	-104	1920	-44	-12	-36
6271	-15	-102	1917	-44	-12	-36
6276	-7	-105	1922	-44	-12	-36
6281	-9	-105	1915	-44	-12	-36
6286	-9	-107	1925	-44	-12	-36
6291	-5	-108	1909	-44	-12	-36
6296	-5	-98	1928	-29	22	-43
6301	-14	-101	1910	-29	22	-43
6306	-16	-101	1922	-29	22	-43
6311	-7	-105	1920	-29	22	-43
6316	1	-108	1928	-29	22	-43
6321	-1	-104	1913	-29	22	-43
6326	-5	-98	1925	-103	67	-58
6331	-14	-99	1918	-103	67	-58
6336	-8	-100	1924	-103	67	-58
6341	-1	-111	1919	-103	67	-58
6346	-7	-108	1914	-103	67	-58
6351	-3	-99	1909	-103	67	-58
6356	-2	-95	1922	-103	67	-58
6361	-8	-103	1915	-41	42	-54
6366	-12	-97	1917	-41	42	-54
6371	-6	-112	1927	-41	42	-54
6376	-11	-92	1909	-41	42	-54
6381	2	-101	1931	-41	42	-54
6386	-4	-98	1911	-41	42	-54
6391	-20	-99	1920	-55	19	106
6396	-2	-101	1926	-55	19	106
6401	-10	-101	1919	-55	19	106
6406	-6	-109	1923	-55	19	106
6411	-15	-110	1908	-55	19	106
6416	-9	-97	1921	-55	19	106
6421	-5	-108	1909	0	-26	-10
6426	-9	-112	1923	0	-26	-10
6431	-2	-97	1922	0	-26	-10
6436	-8	-105	1927	0	-26	-10
6441	-5	-108	1907	0	-26	-10
6446	-7	-101	1912	0	-26	-10
6451	-6	-101	1917	-57	24	-18
6456	0	-111	1925	-57	24	-18
6461	-8	-107	1930	-57	24	-18
6466	1	-110	1932	-57	24	-18
6471	-8	-106	1913	-57	24	-18
6476	-20	-97	1918	-57	24	-18
6481	-3	-105	1923	-56	28	-78
6486	-3	-108	1933	-56	28	-78
6491	-18	-106	1919	-56	28	-78
6496	-6	-105	1910	-56	28	-78
6501	-9	-100	1920	-56	28	-78
6506	-11	-105	1913	-56	28	-78
6511	-8	-103	1932	-56	28	-78
6516	-5	-105	1921	-62	29	-29
6521	-10	-101	1920	-62	29	-29
6526	-7	-102	1917	-62	29	-29
6531	-7	-105	1917	-62	29	-29
6536	-6	-107	1914	-62	29	-29
6541	-5	-106	1913	-62	29	-29
6546	1	-104	1913	-65	64	-12
6551	-9	-103	1926	-65	64	-12
6556	-4	-98	1931	-65	64	-12
6561	-4	-106	1930	-65	64	-12
6566	-6	-117	1932	-65	64	-12
6571	-5	-99	1917	-65	64	-12
6576	-10	-109	1917	-6	11	-67
6581	6	-103	1910	-6	11	-67
6586	-7	-107	1914	-6	11	-67
6591	-1	-103	1907	-6	11	-67
6596	-21	-103	1925	-6	11	-67
6601	-15	-106	1921	-6	11	-67
6606	-7	-101	1910	-42	-21	59
6611	-2	-102	1916	-42	-21	59
6616	-7	-97	1926	-42	-21	59
6621	-10	-109	1932	-42	-21	59
6626	-6	-115	1928	-42	-21	59
6631	-7	-104	1919	-42	-21	59
6636	-7	-106	1928	-22	-70	-42
6641	2	-108	1915	-22	-70	-42
6646	-8	-100	1926	-22	-70	-42
6651	-12	-106	1931	-22	-70	-42
6656	-9	-108	1921	-22	-70	-42
6661	-9	-101	1928	-22	-70	-42
6666	-8	-100	1920	-22	-70	-42
6671	-2	-102	1941	11	42	-23
6676	-5	-106	1927	11	42	-23
6681	-1	-101	1935	11	42	-23
6686	-6	-109	1927	11	42	-23
6691	-8	-99	1917	11	42	-23
6696	-6	-110	1915	11	42	-23
6701	-7	-111	1915	-71	37	-105
6706	-11	-96	1933	-71	37	-105
6711	-7	-106	1916	-71	37	-105
6716	-2	-104	1930	-71	37	-105
6721	-15	-98	1930	-71	37	-105
6726	-11	-102	1916	-71	37	-105
6731	-11	-107	1922	-65	52	-52
6736	-9	-103	1926	-65	52	-52
6741	-13	-100	1923	-65	52	-52
6746	-12	-104	1924	-65	52	-52
6751	-10	-106	1908	-65	52	-52
6756	-10	-100	1919	-65	52	-52
6761	-12	-110	1908	-64	29	-30
6766	-13	-100	1918	-64	29	-30
6771	-3	-95	1909	-64	29	-30
6776	-12	-101	1923	-64	29	-30
6781	-4	-105	1915	-64	29	-30
6786	7	-104	1910	-64	29	-30
6791	-9	-108	1928	-39	74	-124
6796	-12	-99	1923	-39	74	-124
6801	-8	-95	1922	-39	74	-124
6806	-2	-109	1907	-39	74	-124
6811	-2	-105	1905	-39	74	-124
6816	-11	-99	1934	-39	74	-124
6821	-7	-107	1922	-39	74	-124
6826	-10	-107	1909	-71	-32	34
6831	-5	-104	1917	-71	-32	34
6836	-8	-105	1924	-71	-32	34
6841	-15	-105	1915	-71	-32	34
6846	-5	-102	1914	-71	-32	34
6851	-7	-102	1915	-71	-32	34
6856	-19	-99	1923	-12	45	11
6861	-4	-105	1922	-12	45	11
6866	0	-107	1915	-12	45	11
6871	-8	-109	1916	-12	45	11
6876	-11	-103	1922	-12	45	11
6881	-19	-102	1908	-12	45	11
6886	-10	-104	1930	-48	-22	-10
6891	-10	-101	1912	-48	-22	-10
6896	-7	-95	1917	-48	-22	-10
6901	-5	-101	1912	-48	-22	-10
6906	2	-102	1929	-48	-22	-10
6911	-10	-96	1917	-48	-22	-10
6916	-9	-100	1920	-73	18	-99
6921	-2	-107	1917	-73	18	-99
6926	-10	-103	1913	-73	18	-99
6931	-4	-111	1916	-73	18	-99
6936	-9	-105	1909	-73	18	-99
6941	-11	-107	1921	-73	18	-99
6946	-11	-103	1911	-62	11	-1
6951	-16	-103	1921	-62	11	-1
6956	-11	-92	1918	-62	11	-1
6961	-7	-102	1913	-62	11	-1
6966	-9	-97	1917	-62	11	-1
6971	-14	-106	1919	-62	11	-1
6976	-5	-99	1917	-62	11	-1
6981	-2	-99	1925	-57	48	29
6986	-12	-100	1916	-57	48	29
6991	-4	-106	1926	-57	48	29
6996	-11	-109	1928	-57	48	29
7001	0	-100	1919	-57	48	29
7006	-5	-98	1924	-57	48	29
7011	-12	-99	1927	-32	45	-102
7016	-13	-104	1920	-32	45	-102
7021	-5	-109	1925	-32	45	-102
7026	-17	-98	1921	-32	45	-102
7031	1	-94	1923	-32	45	-102
7036	0	-106	1924	-32	45	-102
7041	0	-111	1937	-61	-2	-20
7046	-11	-101	1912	-61	-2	-20
7051	-16	-98	1908	-61	-2	-20
7056	-14	-103	1920	-61	-2	-20
7061	-11	-108	1918	-61	-2	-20
7066	-9	-109	1911	-61	-2	-20
7071	-4	-102	1924	-6	-31	53
7076	-8	-107	1921	-6	-31	53
7081	-9	-111	1920	-6	-31	53
7086	-19	-103	1920	-6	-31	53
7091	-6	-108	1926	-6	-31	53
7096	-7	-97	1912	-6	-31	53
7101	-2	-106	1922	-70	17	-26
7106	-15	-108	1919	-70	17	-26
7111	4	-108	1925	-70	17	-26
7116	-17	-106	1923	-70	17	-26
7121	-4	-105	1930	-70	17	-26
7126	-8	-106	1911	-70	17	-26
7131	-12	-104	1910	-70	17	-26
7136	-15	-99	1909	-48	-9	-5
7141	-8	-105	1916	-48	-9	-5
7146	-13	-101	1915	-48	-9	-5
7151	-13	-106	1924	-48	-9	-5
7156	-6	-98	1916	-48	-9	-5
7161	-5	-98	1924	-48	-9	-5
7166	-10	-103	1921	-60	51	-102
7171	-10	-107	1921	-60	51	-102
7176	-10	-96	1935	-60	51	-102
7181	-4	-103	1923	-60	51	-102
7186	-3	-108	1922	-60	51	-102
7191	-8	-102	1908	-60	51	-102
7196	-16	-105	1923	-51	19	7
7201	-16	-102	1913	-51	19	7
7206	-15	-102	1927	-51	19	7
7211	-2	-106	1930	-51	19	7
7216	-10	-94	1925	-51	19	7
7221	-7	-104	1912	-51	19	7
7226	-12	-99	1921	-44	9	-131
7231	-6	-103	1913	-44	9	-131
7236	-8	-104	1931	-44	9	-131
7241	-12	-102	1916	-44	9	-131
7246	-9	-108	1914	-44	9	-131
7251	-9	-103	1929	-44	9	-131
7256	-6	-103	1920	-28	-6	-17
7261	-15	-109	1909	-28	-6	-17
7266	-9	-103	1916	-28	-6	-17
7271	-6	-101	1911	-28	-6	-17
7276	-6	-101	1930	-28	-6	-17
7281	-5	-95	1916	-28	-6	-17
7286	-16	-107	1918	-28	-6	-17
7291	-4	-103	1920	-25	-69	21
7296	-2	-107	1911	-25	-69	21
7301	-9	-112	1911	-25	-69	21
7306	-1	-106	1906	-25	-69	21
7311	-9	-106	1914	-25	-69	21
7316	-7	-98	1923	-25	-69	21
7321	-5	-111	1918	-39	22	30
7326	-16	-104	1924	-39	22	30
7331	-7	-107	1899	-39	22	30
7336	-5	-99	1916	-39	22	30
7341	-6	-104	1913	-39	22	30
7346	-8	-104	1936	-39	22	30
7351	-8	-104	1924	-48	-7	-2
7356	-5	-99	1920	-48	-7	-2
7361	-14	-99	1922	-48	-7	-2
7366	-16	-100	1903	-48	-7	-2
7371	-3	-102	1927	-48	-7	-2
7376	-3	-107	1916	-48	-7	-2
7381	-10	-99	1927	-64	32	-95
7386	-6	-99	1931	-64	32	-95
7391	-6	-106	1927	-64	32	-95
7396	-7	-100	1909	-64	32	-95
7401	-6	-103	1927	-64	32	-95
7406	-9	-102	1916	-64	32	-95
7411	-9	-106	1911	-100	58	-81
7416	-11	-98	1919	-100	58	-81
7421	-3	-104	1929	-100	58	-81
7426	-17	-101	1915	-100	58	-81
7431	-9	-101	1924	-100	58	-81
7436	-12	-102	1926	-100	58	-81
7441	3	-109	1906	-100	58	-81
7446	-2	-102	1924	-71	-39	-106
7451	-12	-95	1928	-71	-39	-106
7456	-14	-103	1926	-71	-39	-106
7461	-11	-103	1924	-71	-39	-106
7466	-13	-105	1916	-71	-39	-106
7471	-1	-103	1915	-71	-39	-106
7476	-21	-99	1922	-48	72	131
7481	-17	-107	1908	-48	72	131
7486	-13	-103	1911	-48	72	131
7491	-5	-107	1917	-48	72	131
7496	-8	-106	1924	-48	72	131
7501	-1	-99	1937	-48	72	131
7506	-8	-107	1930	-55	5	-5
7511	-9	-102	1913	-55	5	-5
7516	-10	-104	1925	-55	5	-5
7521	-7	-96	1911	-55	5	-5
7526	-3	-112	1927	-55	5	-5
7531	-2	-107	1925	-55	5	-5
7536	-4	-107	1929	-77	77	-36
7541	-7	-98	1917	-77	77	-36
7546	-6	-107	1932	-77	77	-36
7551	-8	-107	1921	-77	77	-36
7556	-12	-99	1927	-77	77	-36
7561	-14	-104	1914	-77	77	-36
7566	-12	-102	1922	-45	58	-26
7571	-10	-97	1922	-45	58	-26
7576	-8	-109	1906	-45	58	-26
7581	-7	-98	1932	-45	58	-26
7586	-6	-110	1924	-45	58	-26
7591	-22	-108	1921	-45	58	-26
7596	-9	-103	1920	-45	58	-26
7601	-16	-101	1920	-65	2	9
7606	-11	-112	1921	-65	2	9
7611	-14	-100	1930	-65	2	9
7616	-3	-100	1923	-65	2	9
7621	-3	-103	1919	-65	2	9
7626	-10	-98	1918	-65	2	9
7631	-17	-100	1916	-34	-2	116
7636	-12	-100	1926	-34	-2	116
7641	-11	-101	1931	-34	-2	116
7646	-17	-104	1921	-34	-2	116
7651	-7	-103	1921	-34	-2	116
7656	-5	-107	1917	-34	-2	116
7661	-11	-108	1919	-9	28	-83
7666	-9	-97	1913	-9	28	-83
7671	-11	-104	1911	-9	28	-83
7676	-1	-105	1914	-9	28	-83
7681	-7	-102	1911	-9	28	-83
7686	-10	-109	1908	-9	28	-83
7691	-9	-110	1923	-15	27	71
7696	1	-110	1932	-15	27	71
7701	-12	-107	1924	-15	27	71
7706	-13	-103	1914	-15	27	71
7711	-6	-107	1908	-15	27	71
7716	-6	-105	1925	-15	27	71
7721	-16	-110	1911	-28	-29	-23
7726	-12	-110	1919	-28	-29	-23
7731	-4	-103	1925	-28	-29	-23
7736	-12	-107	1911	-28	-29	-23
7741	-7	-107	1912	-28	-29	-23
7746	-4	-105	1908	-28	-29	-23
7751	-14	-99	1914	-28	-29	-23
7756	-19	-113	1911	-35	18	-30
7761	-6	-112	1928	-35	18	-30
7766	-11	-100	1928	-35	18	-30
7771	-9	-99	1920	-35	18	-30
7776	-1	-106	1920	-35	18	-30
7781	-9	-105	1917	-35	18	-30
7786	-6	-105	1919	-36	31	-29
7791	-5	-103	1915	-36	31	-29
7796	-10	-98	1912	-36	31	-29
7801	-3	-104	1924	-36	31	-29
7806	-8	-102	1919	-36	31	-29
7811	-13	-103	1925	-36	31	-29
7816	-6	-98	1908	-55	40	15
7821	-11	-100	1914	-55	40	15
7826	-5	-101	1921	-55	40	15
7831	0	-103	1916	-55	40	15
7836	-16	-106	1912	-55	40	15
7841	-1	-102	1920	-55	40	15
7846	-7	-105	1923	-71	28	-34
7851	-1	-105	1922	-71	28	-34
7856	-10	-103	1926	-71	28	-34
7861	-3	-104	1915	-71	28	-34
7866	-14	-101	1937	-71	28	-34
7871	-16	-108	1915	-71	28	-34
7876	-8	-104	1912	-31	11	-90
7881	-5	-109	1922	-31	11	-90
7886	-11	-107	1915	-31	11	-90
7891	-12	-108	1906	-31	11	-90
7896	-4	-101	1909	-31	11	-90
7901	-3	-103	1909	-31	11	-90
7906	-1	-101	1915	-31	11	-90
7911	-10	-104	1916	-44	8	33
7916	-1	-101	1928	-44	8	33
7921	-16	-98	1910	-44	8	33
7926	-10	-111	1912	-44	8	33
7931	-5	-93	1928	-44	8	33
7936	-3	-104	1914	-44	8	33
7941	-7	-101	1919	-26	-60	26
7946	-2	-102	1921	-26	-60	26
7951	-19	-101	1913	-26	-60	26
7956	-13	-103	1919	-26	-60	26
7961	-9	-111	1930	-26	-60	26
7966	-3	-97	1916	-26	-60	26
7971	-7	-105	1917	-34	48	-18
7976	-10	-99	1922	-34	48	-18
7981	-13	-93	1912	-34	48	-18
7986	3	-103	1922	-34	48	-18
7991	-5	-103	1926	-34	48	-18
7996	-12	-103	1920	-34	48	-18
8001	-1	-101	1909	-63	8	-2
8006	-9	-99	1913	-63	8	-2
8011	-5	-96	1919	-63	8	-2
8016	-10	-102	1934	-63	8	-2
8021	-5	-95	1917	-63	8	-2
8026	-10	-101	1928	-63	8	-2
8031	-9	-95	1913	-62	-5	-11
8036	-16	-108	1903	-62	-5	-11
8041	-9	-91	1909	-62	-5	-11
8046	-14	-107	1914	-62	-5	-11
8051	-5	-109	1918	-62	-5	-11
8056	-8	-93	1909	-62	-5	-11
8061	-2	-104	1918	-62	-5	-11
8066	-14	-94	1903	-57	82	-5
8071	-1	-98	1908	-57	82	-5
8076	-8	-107	1924	-57	82	-5
8081	-4	-99	1922	-57	82	-5
8086	-7	-109	1915	-57	82	-5
8091	-17	-109	1923	-57	82	-5
8096	-10	-113	1918	-35	-23	-40
8101	-17	-104	1918	-35	-23	-40
8106	-4	-100	1921	-35	-23	-40
8111	1	-91	1929	-35	-23	-40
8116	-7	-100	1918	-35	-23	-40
8121	-5	-103	1915	-35	-23	-40
8126	-13	-106	1919	-36	-22	5
8131	-11	-101	1916	-36	-22	5
8136	-7	-103	1930	-36	-22	5
8141	-3	-103	1925	-36	-22	5
8146	-13	-100	1916	-36	-22	5
8151	-14	-105	1921	-36	-22	5
8156	-12	-106	1926	-16	-16	50
8161	-10	-107	1941	-16	-16	50
8166	-12	-111	1923	-16	-16	50
8171	-7	-105	1918	-16	-16	50
8176	-10	-104	1922	-16	-16	50
8181	-6	-98	1916	-16	-16	50
8186	-3	-112	1926	-20	15	-23
8191	-2	-100	1915	-20	15	-23
8196	-12	-106	1928	-20	15	-23
8201	-3	-98	1923	-20	15	-23
8206	-4	-111	1906	-20	15	-23
8211	-5	-103	1928	-20	15	-23
8216	-4	-107	1913	-20	15	-23
8221	-11	-97	1919	-74	51	-10
8226	-9	-101	1913	-74	51	-10
8231	-16	-93	1922	-74	51	-10
8236	-16	-104	1922	-74	51	-10
8241	-1	-94	1913	-74	51	-10
8246	-3	-101	1920	-74	51	-10
8251	-4	-103	1925	-80	22	-48
8256	-8	-105	1919	-80	22	-48
8261	-7	-100	1902	-80	22	-48
8266	-16	-105	1908	-80	22	-48
8271	-11	-112	1912	-80	22	-48
8276	-14	-111	1915	-80	22	-48
8281	-4	-107	1922	-2	-9	48
8286	-2	-108	1913	-2	-9	48
8291	-15	-107	1922	-2	-9	48
8296	-5	-102	1915	-2	-9	48
8301	-10	-104	1907	-2	-9	48
8306	-9	-108	1914	-2	-9	48
8311	-8	-106	1914	-73	-3	-136
8316	-4	-105	1921	-73	-3	-136
8321	3	-101	1908	-73	-3	-136
8326	-10	-101	1908	-73	-3	-136
8331	-8	-102	1923	-73	-3	-136
8336	-14	-109	1916	-73	-3	-136
8341	-2	-103	1927	-74	42	-58
8346	-16	-101	1909	-74	42	-58
8351	-15	-99	1905	-74	42	-58
8356	-10	-112	1921	-74	42	-58
8361	-6	-102	1921	-74	42	-58
8366	-7	-106	1924	-74	42	-58
8371	1	-99	1932	-74	42	-58
8376	-5	-102	1916	-39	-16	108
8381	-8	-105	1920	-39	-16	108
8386	-8	-108	1920	-39	-16	108
8391	-14	-108	1920	-39	-16	108
8396	-4	-102	1925	-39	-16	108
8401	-1	-108	1926	-39	-16	108
8406	-6	-94	1918	-23	35	-48
8411	-12	-105	1899	-23	35	-48
8416	-10	-108	1914	-23	35	-48
8421	-7	-96	1913	-23	35	-48
8426	-10	-97	1913	-23	35	-48
8431	-11	-103	1918	-23	35	-48
8436	-11	-100	1925	-35	5	11
8441	-5	-102	1929	-35	5	11
8446	-14	-98	1922	-35	5	11
8451	-7	-106	1922	-35	5	11
8456	-11	-104	1920	-35	5	11
8461	-10	-103	1915	-35	5	11
8466	-3	-99	1921	-49	61	-82
8471	-6	-98	1928	-49	61	-82
8476	1	-101	1918	-49	61	-82
8481	-14	-111	1915	-49	61	-82
8486	-11	-112	1913	-49	61	-82
8491	-8	-103	1921	-49	61	-82
8496	-8	-100	1919	11	-3	39
8501	-11	-108	1914	11	-3	39
8506	-13	-102	1909	11	-3	39
8511	-7	-103	1928	11	-3	39
8516	-14	-102	1937	11	-3	39
8521	-12	-106	1924	11	-3	39
8526	-14	-106	1910	11	-3	39
8531	-5	-111	1928	-68	-38	-128
8536	3	-112	1917	-68	-38	-128
8541	-3	-101	1923	-68	-38	-128
8546	-6	-100	1907	-68	-38	-128
8551	-14	-107	1923	-68	-38	-128
8556	-9	-109	1913	-68	-38	-128
8561	-16	-105	1917	-34	4	103
8566	-9	-107	1930	-34	4	103
8571	-12	-105	1930	-34	4	103
8576	-6	-96	1920	-34	4	103
8581	-9	-104	1919	-34	4	103
8586	-13	-110	1910	-34	4	103
8591	-1	-105	1923	33	25	1
8596	-4	-108	1928	33	25	1
8601	-3	-115	1921	33	25	1
8606	-8	-109	1912	33	25	1
8611	-14	-105	1929	33	25	1
8616	-13	-103	1910	33	25	1
8621	-15	-109	1916	-42	-3	-32
8626	1	-100	1906	-42	-3	-32
8631	-1	-101	1910	-42	-3	-32
8636	-10	-109	1914	-42	-3	-32
8641	-14	-101	1916	-42	-3	-32
8646	-19	-106	1918	-42	-3	-32
8651	-11	-101	1920	-48	-22	40
8656	-12	-105	1913	-48	-22	40
8661	-5	-102	1928	-48	-22	40
8666	-5	-104	1925	-48	-22	40
8671	-3	-95	1921	-48	-22	40
8676	-12	-104	1917	-48	-22	40
8681	0	-107	1916	-48	-22	40
8686	-3	-95	1927	-57	47	15
8691	-12	-95	1918	-57	47	15
8696	-7	-104	1920	-57	47	15
8701	-2	-111	1923	-57	47	15
8706	-6	-98	1920	-57	47	15
8711	-2	-101	1935	-57	47	15
8716	-8	-101	1928	-31	2	86
8721	-6	-101	1922	-31	2	86
8726	-1	-99	1930	-31	2	86
8731	-7	-112	1902	-31	2	86
8736	-10	-109	1933	-31	2	86
8741	-12	-102	1920	-31	2	86
8746	-12	-103	1917	4	54	-86
8751	-5	-96	1918	4	54	-86
8756	-6	-106	1932	4	54	-86
8761	-13	-101	1924	4	54	-86
8766	-7	-101	1919	4	54	-86
8771	-6	-103	1936	4	54	-86
8776	-3	-109	1912	-35	17	86
8781	-12	-92	1916	-35	17	86
8786	-11	-102	1915	-35	17	86
8791	-9	-98	1919	-35	17	86
8796	-2	-105	1919	-35	17	86
8801	-10	-105	1922	-35	17	86
8806	-11	-102	1917	-26	-21	-34
8811	-7	-105	1913	-26	-21	-34
8816	-9	-99	1917	-26	-21	-34
8821	-15	-108	1923	-26	-21	-34
8826	-9	-104	1924	-26	-21	-34
8831	-7	-101	1918	-26	-21	-34
8836	-4	-101	1916	-26	-21	-34
8841	-8	-103	1901	-67	-22	-49
8846	-11	-100	1929	-67	-22	-49
8851	-16	-108	1918	-67	-22	-49
8856	-4	-103	1923	-67	-22	-49
8861	-9	-108	1926	-67	-22	-49
8866	-4	-105	1903	-67	-22	-49
8871	-6	-106	1912	-51	30	-45
8876	-9	-109	1918	-51	30	-45
8881	-10	-105	1919	-51	30	-45
8886	-13	-100	1923	-51	30	-45
8891	-13	-106	1917	-51	30	-45
8896	-7	-105	1929	-51	30	-45
8901	-12	-109	1929	-65	47	-26
8906	-9	-97	1918	-65	47	-26
8911	1	-101	1924	-65	47	-26
8916	-8	-107	1928	-65	47	-26
8921	-2	-100	1921	-65	47	-26
8926	-2	-100	1915	-65	47	-26
8931	-10	-101	1932	-39	18	75
8936	-11	-103	1925	-39	18	75
8941	-9	-113	1914	-39	18	75
8946	-3	-100	1919	-39	18	75
8951	-4	-93	1906	-39	18	75
8956	-6	-101	1923	-39	18	75
8961	-10	-102	1909	13	-16	43
8966	-14	-104	1929	13	-16	43
8971	-7	-106	1925	13	-16	43
8976	-6	-106	1916	13	-16	43
8981	-9	-104	1919	13	-16	43
8986	-6	-100	1914	13	-16	43
8991	-14	-105	1924	13	-16	43
8996	-7	-103	1910	-29	-12	55
9001	-8	-104	1924	-29	-12	55
9006	-4	-103	1919	-29	-12	55
9011	-10	-99	1908	-29	-12	55
9016	-10	-118	1909	-29	-12	55
9021	-12	-102	1915	-29	-12	55
9026	4	-106	1929	-13	-29	-48
9031	-13	-105	1937	-13	-29	-48
9036	-9	-101	1931	-13	-29	-48
9041	-8	-101	1910	-13	-29	-48
9046	-7	-104	1913	-13	-29	-48
9051	-9	-97	1919	-13	-29	-48
9056	-6	-101	1921	-41	-9	-7
9061	-7	-99	1928	-41	-9	-7
9066	-6	-105	1922	-41	-9	-7
9071	3	-101	1927	-41	-9	-7
9076	-15	-106	1916	-41	-9	-7
9081	-10	-100	1920	-41	-9	-7
9086	-10	-104	1915	-51	24	-14
9091	-6	-99	1916	-51	24	-14
9096	-6	-101	1915	-51	24	-14
9101	0	-96	1925	-51	24	-14
9106	-1	-104	1927	-51	24	-14
9111	-16	-99	1913	-51	24	-14
9116	-12	-103	1944	-96	57	-40
9121	-4	-98	1921	-96	57	-40
9126	-20	-101	1925	-96	57	-40
9131	-13	-99	1916	-96	57	-40
9136	-8	-99	1918	-96	57	-40
9141	-10	-104	1917	-96	57	-40
9146	-5	-100	1912	-96	57	-40
9151	-4	-102	1906	-57	68	-59
9156	-6	-94	1923	-57	68	-59
9161	-8	-104	1920	-57	68	-59
9166	-6	-105	1930	-57	68	-59
9171	-5	-101	1921	-57	68	-59
9176	-5	-104	1924	-57	68	-59
9181	-10	-97	1919	-6	-15	-26
9186	-4	-101	1914	-6	-15	-26
9191	-9	-107	1926	-6	-15	-26
9196	-12	-105	1919	-6	-15	-26
9201	-1	-100	1920	-6	-15	-26
9206	-4	-104	1923	-6	-15	-26
9211	0	-99	1909	-28	3	27
9216	-5	-105	1909	-28	3	27
9221	-15	-104	1926	-28	3	27
9226	-14	-100	1930	-28	3	27
9231	-7	-102	1909	-28	3	27
9236	-1	-105	1926	-28	3	27
9241	-3	-95	1928	1	-23	20
9246	-3	-106	1928	1	-23	20
9251	-6	-101	1926	1	-23	20
9256	-13	-110	1914	1	-23	20
9261	-5	-103	1912	1	-23	20
9266	-6	-102	1929	1	-23	20
9271	-10	-100	1925	-13	14	84
9276	-4	-106	1910	-13	14	84
9281	-7	-99	1925	-13	14	84
9286	-8	-105	1927	-13	14	84
9291	-2	-103	1925	-13	14	84
9296	-14	-102	1917	-13	14	84
9301	-7	-96	1918	-13	14	84
9306	-12	-105	1937	-51	24	-48
9311	-3	-102	1924	-51	24	-48
9316	-16	-102	1918	-51	24	-48
9321	-11	-104	1914	-51	24	-48
9326	-3	-105	1927	-51	24	-48
9331	-2	-101	1922	-51	24	-48
9336	-7	-106	1912	-61	18	-68
9341	-11	-112	1912	-61	18	-68
9346	-1	-112	1931	-61	18	-68
9351	-12	-94	1912	-61	18	-68
9356	-4	-107	1918	-61	18	-68
9361	-15	-104	1916	-61	18	-68
9366	-14	-94	1915	-80	62	14
9371	-6	-108	1920	-80	62	14
9376	-2	-105	1922	-80	62	14
9381	-7	-98	1923	-80	62	14
9386	-3	-109	1915	-80	62	14
9391	-7	-100	1916	-80	62	14
9396	-4	-98	1932	-66	-12	-93
9401	-10	-100	1911	-66	-12	-93
9406	-3	-101	1938	-66	-12	-93
9411	-9	-107	1924	-66	-12	-93
9416	-10	-96	1913	-66	-12	-93
9421	-5	-99	1930	-66	-12	-93
9426	-8	-100	1924	-38	-3	-12
9431	-7	-101	1921	-38	-3	-12
9436	-3	-107	1930	-38	-3	-12
9441	-2	-105	1925	-38	-3	-12
9446	-9	-100	1929	-38	-3	-12
9451	-13	-102	1910	-38	-3	-12
9456	-6	-108	1921	-38	-3	-12
9461	-5	-98	1924	-54	-56	23
9466	-4	-108	1923	-54	-56	23
9471	-9	-98	1923	-54	-56	23
9476	-15	-103	1919	-54	-56	23
9481	-1	-111	1918	-54	-56	23
9486	-8	-96	1923	-54	-56	23
9491	-6	-103	1921	-19	25	-26
9496	-4	-103	1918	-19	25	-26
9501	-10	-109	1923	-19	25	-26
9506	-10	-102	1914	-19	25	-26
9511	-9	-104	1921	-19	25	-26
9516	-13	-108	1916	-19	25	-26
9521	-9	-96	1923	-91	37	-5
9526	-2	-102	1931	-91	37	-5
9531	-19	-105	1926	-91	37	-5
9536	-7	-100	1918	-91	37	-5
9541	-6	-105	1908	-91	37	-5
9546	-7	-105	1921	-91	37	-5
9551	-8	-102	1926	-23	25	-134
9556	-8	-99	1928	-23	25	-134
9561	-11	-105	1910	-23	25	-134
9566	-11	-100	1919	-23	25	-134
9571	-10	-101	1930	-23	25	-134
9576	-12	-107	1922	-23	25	-134
9581	-15	-105	1928	-40	42	45
9586	-2	-104	1913	-40	42	45
9591	-10	-110	1907	-40	42	45
9596	-11	-100	1909	-40	42	45
9601	-7	-99	1917	-40	42	45
9606	-12	-106	1917	-40	42	45
9611	-3	-100	1928	-40	42	45
9616	-2	-103	1920	-67	17	-97
9621	-10	-106	1905	-67	17	-97
9626	0	-109	1914	-67	17	-97
9631	-6	-100	1926	-67	17	-97
9636	-2	-104	1939	-67	17	-97
9641	-4	-105	1921	-67	17	-97
9646	-10	-108	1929	-41	-21	-7
9651	-11	-108	1918	-41	-21	-7
9656	-7	-99	1926	-41	-21	-7
9661	-6	-97	1914	-41	-21	-7
9666	-8	-105	1925	-41	-21	-7
9671	-5	-102	1918	-41	-21	-7
9676	-10	-95	1911	-25	7	37
9681	-13	-102	1912	-25	7	37
9686	-11	-107	1926	-25	7	37
9691	-3	-105	1926	-25	7	37
9696	-6	-96	1932	-25	7	37
9701	-7	-98	1908	-25	7	37
9706	-9	-99	1913	-48	11	-24
9711	-9	-104	1923	-48	11	-24
9716	-11	-104	1930	-48	11	-24
9721	-10	-101	1924	-48	11	-24
9726	-4	-106	1914	-48	11	-24
9731	-6	-103	1925	-48	11	-24
9736	-14	-101	1911	-65	109	29
9741	-5	-93	1927	-65	109	29
9746	-6	-104	1920	-65	109	29
9751	-6	-105	1920	-65	109	29
9756	-10	-102	1930	-65	109	29
9761	-2	-97	1911	-65	109	29
9766	-15	-107	1922	-65	109	29
9771	-5	-109	1914	-41	51	-61
9776	-5	-103	1915	-41	51	-61
9781	-7	-114	1915	-41	51	-61
9786	-4	-102	1931	-41	51	-61
9791	-12	-88	1909	-41	51	-61
9796	-10	-102	1922	-41	51	-61
9801	-13	-105	1924	-47	1	86
9806	-13	-105	1916	-47	1	86
9811	11	-107	1907	-47	1	86
9816	-10	-101	1920	-47	1	86
9821	-12	-96	1936	-47	1	86
9826	-12	-96	1906	-47	1	86
9831	-5	-109	1912	-52	-10	-120
9836	-17	-102	1926	-52	-10	-120
9841	4	-97	1916	-52	-10	-120
9846	-9	-99	1925	-52	-10	-120
9851	-5	-102	1902	-52	-10	-120
9856	-10	-102	1911	-52	-10	-120
9861	-3	-105	1918	-60	-13	68
9866	-11	-105	1922	-60	-13	68
9871	-4	-103	1920	-60	-13	68
9876	-3	-107	1913	-60	-13	68
9881	-4	-104	1924	-60	-13	68
9886	-11	-101	1920	-60	-13	68
9891	-10	-107	1927	-20	-42	5
9896	-10	-108	1925	-20	-42	5
9901	-1	-111	1916	-20	-42	5
9906	-6	-98	1916	-20	-42	5
9911	-14	-95	1927	-20	-42	5
9916	-6	-102	1920	-20	-42	5
9921	-18	-95	1927	-20	-42	5
9926	-7	-99	1920	-19	24	-14
9931	-3	-99	1915	-19	24	-14
9936	-5	-103	1912	-19	24	-14
9941	-14	-103	1920	-19	24	-14
9946	-8	-111	1927	-19	24	-14
9951	-10	-101	1919	-19	24	-14
9956	-8	-96	1916	-34	2	-1
9961	-8	-102	1927	-34	2	-1
9966	-9	-102	1920	-34	2	-1
9971	-11	-100	1922	-34	2	-1
9976	-12	-109	1914	-34	2	-1
9981	-9	-98	1919	-34	2	-1
9986	-9	-102	1921	-74	-12	-32
9991	-5	-103	1923	-74	-12	-32
9996	-16	-101	1930	-74	-12	-32
10001	-9	-100	1917	-74	-12	-32
10006	-9	-104	1921	-74	-12	-32
10011	-11	-99	1918	-74	-12	-32
10016	-3	-102	1909	-38	8	108
10021	-12	-104	1916	-38	8	108
10026	-6	-97	1909	-38	8	108
10031	-8	-101	1913	-38	8	108
10036	-16	-106	1922	-38	8	108
10041	-9	-99	1922	-38	8	108
10046	-6	-102	1916	-28	-8	45
10051	-15	-101	1914	-28	-8	45
10056	-12	-98	1920	-28	-8	45
10061	-5	-101	1932	-28	-8	45
10066	-4	-107	1916	-28	-8	45
10071	-7	-96	1912	-28	-8	45
10076	-11	-100	1915	-28	-8	45
10081	-16	-91	1921	-28	29	124
10086	-6	-100	1914	-28	29	124
10091	-14	-102	1913	-28	29	124
10096	-3	-101	1922	-28	29	124
10101	1	-105	1917	-28	29	124
10106	-7	-99	1914	-28	29	124
10111	-8	-96	1922	-17	-12	29
10116	-8	-98	1912	-17	-12	29
10121	-15	-103	1911	-17	-12	29
10126	-7	-99	1921	-17	-12	29
10131	-4	-93	1926	-17	-12	29
10136	5	-102	1926	-17	-12	29
10141	-16	-93	1923	-57	-3	-39
10146	-9	-97	1915	-57	-3	-39
10151	-9	-111	1926	-57	-3	-39
10156	-3	-106	1929	-57	-3	-39
10161	-5	-104	1924	-57	-3	-39
10166	-4	-108	1924	-57	-3	-39
10171	3	-108	1928	-67	14	-52
10176	-6	-104	1923	-67	14	-52
10181	-9	-103	1915	-67	14	-52
10186	-12	-100	1935	-67	14	-52
10191	-6	-100	1913	-67	14	-52
10196	-12	-104	1920	-67	14	-52
10201	-11	-106	1926	-74	-6	-109
10206	3	-109	1926	-74	-6	-109
10211	-13	-104	1922	-74	-6	-109
10216	-19	-98	1918	-74	-6	-109
10221	-12	-104	1922	-74	-6	-109
10226	-6	-98	1921	-74	-6	-109
10231	-7	-107	1904	-74	-6	-109
10236	-9	-103	1923	-36	8	77
10241	-2	-101	1918	-36	8	77
10246	-8	-108	1905	-36	8	77
10251	-2	-95	1922	-36	8	77
10256	-3	-94	1904	-36	8	77
10261	-2	-107	1921	-36	8	77
10266	-2	-103	1938	-23	21	-56
10271	-6	-106	1921	-23	21	-56
10276	-1	-104	1918	-23	21	-56
10281	-10	-103	1921	-23	21	-56
10286	-13	-92	1920	-23	21	-56
10291	-4	-108	1898	-23	21	-56
10296	-11	-103	1910	-14	-8	64
10301	-7	-105	1915	-14	-8	64
10306	-6	-104	1916	-14	-8	64
10311	-10	-103	1908	-14	-8	64
10316	-9	-103	1917	-14	-8	64
10321	-19	-107	1917	-14	-8	64
10326	-10	-101	1922	-36	-28	23
10331	2	-105	1917	-36	-28	23
10336	-12	-105	1920	-36	-28	23
10341	-8	-101	1924	-36	-28	23
10346	-3	-105	1906	-36	-28	23
10351	-6	-108	1922	-36	-28	23
10356	-1	-108	1914	-54	34	94
10361	-8	-101	1913	-54	34	94
10366	-7	-107	1916	-54	34	94
10371	-13	-106	1915	-54	34	94
10376	-3	-105	1910	-54	34	94
10381	-7	-101	1925	-54	34	94
10386	-12	-107	1927	-54	34	94
10391	-8	-106	1929	-85	52	-39
10396	-10	-94	1934	-85	52	-39
10401	-15	-107	1916	-85	52	-39
10406	-10	-96	1932	-85	52	-39
10411	-4	-104	1922	-85	52	-39
10416	-6	-93	1919	-85	52	-39
10421	-13	-105	1925	-74	21	-55
10426	-9	-106	1920	-74	21	-55
10431	-9	-95	1926	-74	21	-55
10436	-10	-99	1919	-74	21	-55
10441	-13	-104	1917	-74	21	-55
10446	-15	-112	1931	-74	21	-55
10451	-9	-107	1920	-93	38	9
10456	-14	-99	1914	-93	38	9
10461	-7	-94	1930	-93	38	9
10466	-7	-106	1917	-93	38	9
10471	-16	-102	1925	-93	38	9
10476	-3	-98	1915	-93	38	9
10481	-1	-105	1920	-35	27	-80
10486	-8	-95	1926	-35	27	-80
10491	-5	-110	1932	-35	27	-80
10496	-15	-102	1909	-35	27	-80
10501	-16	-99	1929	-35	27	-80
10506	-6	-99	1929	-35	27	-80
10511	-6	-97	1924	-30	-33	45
10516	-6	-99	1896	-30	-33	45
10521	-10	-102	1930	-30	-33	45
10526	-7	-102	1928	-30	-33	45
10531	-9	-102	1926	-30	-33	45
10536	-6	-103	1936	-30	-33	45
10541	-12	-98	1906	-30	-33	45
10546	-10	-106	1907	-21	-63	9
10551	-6	-112	1927	-21	-63	9
10556	-8	-99	1923	-21	-63	9
10561	-2	-106	1918	-21	-63	9
10566	-10	-100	1935	-21	-63	9
10571	-12	-99	1931	-21	-63	9
10576	-8	-102	1915	-33	30	-27
10581	-5	-107	1925	-33	30	-27
10586	-8	-106	1917	-33	30	-27
10591	-18	-97	1920	-33	30	-27
10596	-8	-106	1931	-33	30	-27
10601	-11	-100	1921	-33	30	-27
10606	-6	-105	1918	-114	-16	-29
10611	-11	-102	1909	-114	-16	-29
10616	-7	-106	1923	-114	-16	-29
10621	-12	-100	1928	-114	-16	-29
10626	-13	-101	1921	-114	-16	-29
10631	-4	-103	1920	-114	-16	-29
10636	-9	-104	1913	-68	52	-111
10641	-7	-96	1912	-68	52	-111
10646	-7	-104	1929	-68	52	-111
10651	-8	-100	1910	-68	52	-111
10656	-9	-102	1914	-68	52	-111
10661	-8	-105	1923	-68	52	-111
10666	-3	-100	1898	-18	-46	55
10671	-9	-107	1923	-18	-46	55
10676	-4	-98	1917	-18	-46	55
10681	-6	-99	1910	-18	-46	55
10686	1	-104	1911	-18	-46	55
10691	-9	-105	1917	-18	-46	55
10696	-3	-102	1914	-18	-46	55
10701	-2	-100	1920	-45	68	-87
10706	-11	-111	1931	-45	68	-87
10711	-9	-100	1919	-45	68	-87
10716	-8	-106	1919	-45	68	-87
10721	-4	-107	1922	-45	68	-87
10726	-4	-108	1920	-45	68	-87
10731	-13	-95	1918	-42	-3	-12
10736	-3	-107	1912	-42	-3	-12
10741	-11	-103	1909	-42	-3	-12
10746	-1	-101	1918	-42	-3	-12
10751	-6	-108	1913	-42	-3	-12
10756	-10	-101	1918	-42	-3	-12
10761	-10	-104	1923	-35	1	8
10766	-5	-96	1917	-35	1	8
10771	-4	-101	1931	-35	1	8
10776	-9	-105	1929	-35	1	8
10781	-13	-98	1930	-35	1	8
10786	-8	-108	1915	-35	1	8
10791	-14	-101	1922	-36	1	-44
10796	-6	-104	1915	-36	1	-44
10801	-8	-108	1934	-36	1	-44
10806	-12	-108	1901	-36	1	-44
10811	-9	-96	1914	-36	1	-44
10816	-7	-109	1924	-36	1	-44
10821	-4	-108	1930	-21	51	37
10826	-6	-105	1923	-21	51	37
10831	-6	-98	1907	-21	51	37
10836	-10	-96	1912	-21	51	37
10841	-9	-100	1914	-21	51	37
10846	-11	-100	1921	-21	51	37
10851	-3	-103	1937	-21	51	37
10856	-6	-100	1925	-26	23	-104
10861	-15	-110	1922	-26	23	-104
10866	-9	-102	1916	-26	23	-104
10871	-11	-99	1919	-26	23	-104
10876	-15	-99	1915	-26	23	-104
10881	-5	-100	1915	-26	23	-104
10886	-6	-102	1925	-22	25	77
10891	-6	-104	1909	-22	25	77
10896	-10	-96	1929	-22	25	77
10901	0	-105	1932	-22	25	77
10906	-1	-100	1920	-22	25	77
10911	-7	-99	1918	-22	25	77
10916	-5	-100	1908	-45	-3	-140
10921	-6	-99	1917	-45	-3	-140
10926	-11	-109	1913	-45	-3	-140
10931	-1	-104	1909	-45	-3	-140
10936	-7	-104	1927	-45	-3	-140
10941	-5	-103	1933	-45	-3	-140
10946	-9	-96	1920	1	24	-32
10951	-7	-100	1905	1	24	-32
10956	-2	-104	1923	1	24	-32
10961	-10	-102	1926	1	24	-32
10966	-7	-109	1928	1	24	-32
10971	-5	-109	1918	1	24	-32
10976	-9	-109	1922	-32	-19	64
10981	-6	-103	1922	-32	-19	64
10986	-6	-106	1941	-32	-19	64
10991	-12	-105	1943	-32	-19	64
10996	-11	-100	1916	-32	-19	64
11001	-1	-102	1928	-32	-19	64
11006	-9	-101	1931	-32	-19	64
11011	-17	-109	1913	-54	7	-14
11016	-10	-107	1916	-54	7	-14
11021	-10	-94	1914	-54	7	-14
11026	-5	-102	1931	-54	7	-14
11031	3	-97	1910	-54	7	-14
11036	-5	-106	1921	-54	7	-14
11041	-13	-102	1916	-73	18	-5
11046	-7	-102	1917	-73	18	-5
11051	-20	-107	1918	-73	18	-5
11056	-2	-104	1917	-73	18	-5
11061	-10	-102	1915	-73	18	-5
11066	-4	-103	1928	-73	18	-5
11071	-11	-100	1919	-62	38	-92
11076	-14	-103	1921	-62	38	-92
11081	-3	-104	1915	-62	38	-92
11086	-15	-103	1923	-62	38	-92
11091	-7	-104	1911	-62	38	-92
11096	0	-105	1911	-62	38	-92
11101	-7	-102	1908	-60	-21	93
11106	-6	-102	1917	-60	-21	93
11111	-4	-100	1923	-60	-21	93
11116	-6	-110	1928	-60	-21	93
11121	-1	-109	1923	-60	-21	93
11126	-7	-101	1914	-60	-21	93
11131	-6	-100	1919	-16	21	-121
11136	-4	-109	1918	-16	21	-121
11141	-11	-101	1923	-16	21	-121
11146	-5	-106	1922	-16	21	-121
11151	-7	-105	1913	-16	21	-121
11156	-5	-100	1920	-16	21	-121
11161	-12	-91	1915	-16	21	-121
11166	-6	-110	1920	-55	31	58
11171	-11	-100	1925	-55	31	58
11176	-9	-106	1916	-55	31	58
11181	-9	-99	1919	-55	31	58
11186	-6	-109	1931	-55	31	58
11191	-9	-113	1910	-55	31	58
11196	0	-96	1918	-62	-38	36
11201	2	-104	1906	-62	-38	36
11206	-15	-104	1919	-62	-38	36
11211	-1	-100	1911	-62	-38	36
11216	-6	-103	1928	-62	-38	36
11221	-10	-105	1913	-62	-38	36
11226	-3	-99	1918	-20	-49	-24
11231	-6	-103	1924	-20	-49	-24
11236	-6	-101	1922	-20	-49	-24
11241	-6	-104	1929	-20	-49	-24
11246	-10	-104	1911	-20	-49	-24
11251	-4	-104	1929	-20	-49	-24
11256	-13	-100	1937	-32	51	-63
11261	-14	-104	1912	-32	51	-63
11266	-7	-102	1913	-32	51	-63
11271	-7	-97	1922	-32	51	-63
11276	-13	-105	1920	-32	51	-63
11281	-6	-93	1909	-32	51	-63
11286	-12	-97	1919	-55	31	-109
11291	-6	-104	1918	-55	31	-109
11296	-17	-95	1929	-55	31	-109
11301	-7	-104	1926	-55	31	-109
11306	-18	-112	1915	-55	31	-109
11311	-11	-105	1915	-55	31	-109
11316	-7	-105	1906	-55	31	-109
11321	-2	-101	1909	-31	5	103
11326	-11	-96	1915	-31	5	103
11331	-7	-106	1961	-31	5	103
11336	-10	-106	1951	-31	5	103
11341	-12	-100	1896	-31	5	103
11346	-5	-105	1908	-31	5	103
11351	-3	-97	1919	-18	18	-95
11356	-7	-101	1923	-18	18	-95
11361	-5	-94	1920	-18	18	-95
11366	-18	-102	1914	-18	18	-95
11371	-10	-105	1938	-18	18	-95
11376	-9	-104	1902	-18	18	-95
11381	3	-102	1963	-32	64	92
11386	-14	-107	1903	-32	64	92
11391	-9	-101	1905	-32	64	92
11396	-8	-104	1927	-32	64	92
11401	-10	-101	1909	-32	64	92
11406	-17	-106	1935	-32	64	92
11411	-7	-107	1904	-41	-45	15
11416	-6	-99	1938	-41	-45	15
11421	-12	-109	1915	-41	-45	15
11426	-6	-112	1991	-41	-45	15
11431	-9	-108	1942	-41	-45	15
11436	-2	-108	1934	-41	-45	15
11441	0	-101	1935	-26	22	-17
11446	-5	-104	1921	-26	22	-17
11451	-8	-109	1928	-26	22	-17
11456	-7	-100	1906	-26	22	-17
11461	-7	-110	1933	-26	22	-17
11466	-8	-104	1928	-26	22	-17
11471	-3	-107	1916	-26	22	-17
11476	-16	-96	1894	-19	25	-87
11481	-14	-103	1912	-19	25	-87
11486	-6	-107	1955	-19	25	-87
11491	1	-108	1920	-19	25	-87
11496	-11	-99	1920	-19	25	-87
11501	-14	-109	1918	-19	25	-87
11506	-2	-112	1927	-51	20	-35
11511	-3	-98	1901	-51	20	-35
11516	-1	-104	1971	-51	20	-35
11521	4	-106	1940	-51	20	-35
11526	2	-86	1766	-51	20	-35
11531	-11	-104	1930	-51	20	-35
11536	-16	-109	1858	-54	45	-1
11541	-6	-105	1950	-54	45	-1
11546	-12	-108	1879	-54	45	-1
11551	-10	-109	1943	-54	45	-1
11556	-7	-104	1922	-54	45	-1
11561	-9	-99	1931	-54	45	-1
11566	-13	-97	1910	-19	4	-46
11571	-12	-98	1936	-19	4	-46
11576	2	-102	1925	-19	4	-46
11581	-4	-106	1914	-19	4	-46
11586	-12	-103	1931	-19	4	-46
11591	-6	-103	1928	-19	4	-46
11596	-7	-100	1898	-86	27	-45
11601	-14	-104	1903	-86	27	-45
11606	-4	-108	1927	-86	27	-45
11611	-15	-106	1928	-86	27	-45
11616	-8	-111	1934	-86	27	-45
11621	-13	-105	1903	-86	27	-45
11626	-9	-110	1909	-86	27	-45
11631	-2	-104	1956	-49	0	12
11636	1	-103	1926	-49	0	12
11641	-26	-105	1843	-49	0	12
11646	-13	-98	1897	-49	0	12
11651	-5	-102	1937	-49	0	12
11656	-8	-102	1874	-49	0	12
11661	2	-103	1902	-42	4	-7
11666	4	-97	1954	-42	4	-7
11671	-11	-101	1904	-42	4	-7
11676	-8	-104	1918	-42	4	-7
11681	-8	-93	1859	-42	4	-7
11686	-4	-102	1962	-42	4	-7
11691	-10	-96	1885	-58	28	-42
11696	-7	-96	1921	-58	28	-42
11701	-8	-106	1887	-58	28	-42
11706	-8	-95	1931	-58	28	-42
11711	-11	-99	1925	-58	28	-42
11716	2	-106	1935	-58	28	-42
11721	-6	-109	1906	-54	7	-59
11726	-6	-96	1918	-54	7	-59
11731	-14	-101	1908	-54	7	-59
11736	-9	-93	1886	-54	7	-59
11741	-10	-108	1964	-54	7	-59
11746	-1	-98	1940	-54	7	-59
11751	-8	-103	1917	-40	17	39
11756	-5	-105	1904	-40	17	39
11761	-7	-97	1922	-40	17	39
11766	-9	-102	1910	-40	17	39
11771	-2	-98	1912	-40	17	39
11776	-16	-93	1851	-40	17	39
11781	-13	-103	1935	-40	17	39
11786	-10	-103	1909	-34	-11	-48
11791	-11	-107	1886	-34	-11	-48
11796	-10	-110	1978	-34	-11	-48
11801	-19	-98	1915	-34	-11	-48
11806	1	-106	1913	-34	-11	-48
11811	-18	-100	1910	-34	-11	-48
11816	-9	-108	1938	-47	-42	30
11821	-11	-107	1927	-47	-42	30
11826	-3	-106	1910	-47	-42	30
11831	1	-92	1926	-47	-42	30
11836	2	-113	2004	-47	-42	30
11841	-3	-100	1918	-47	-42	30
11846	-15	-100	1903	-24	-28	-5
11851	-5	-104	1954	-24	-28	-5
11856	-9	-100	1927	-24	-28	-5
11861	0	-103	1955	-24	-28	-5
11866	-2	-108	1919	-24	-28	-5
11871	-6	-104	1923	-24	-28	-5
11876	-8	-104	1881	-8	-11	-11
11881	-14	-99	1905	-8	-11	-11
11886	-10	-102	1918	-8	-11	-11
11891	-5	-105	1955	-8	-11	-11
11896	-5	-107	1933	-8	-11	-11
11901	-3	-106	1925	-8	-11	-11
11906	-12	-106	1908	-100	52	3
11911	-3	-106	1903	-100	52	3
11916	-9	-105	1920	-100	52	3
11921	-13	-105	1907	-100	52	3
11926	-3	-105	1957	-100	52	3
11931	-7	-103	1953	-100	52	3
11936	-45	-91	1757	-100	52	3
11941	-27	-97	1898	-39	21	-74
11946	-4	-104	1922	-39	21	-74
11951	-6	-106	1907	-39	21	-74
11956	-11	-99	1889	-39	21	-74
11961	-9	-109	1953	-39	21	-74
11966	-1	-100	1900	-39	21	-74
11971	-10	-106	1933	-12	82	50
11976	-22	-85	1858	-12	82	50
11981	-6	-105	1920	-12	82	50
11986	-8	-102	1900	-12	82	50
11991	-3	-103	1919	-12	82	50
11996	-15	-102	1918	-12	82	50
12001	-8	-100	1934	-31	11	-112
12006	-6	-106	1913	-31	11	-112
12011	-12	-102	1923	-31	11	-112
12016	-9	-96	1916	-31	11	-112
12021	-8	-101	1902	-31	11	-112
12026	-17	-111	1922	-31	11	-112
12031	-9	-113	1939	-2	-12	-7
12036	-6	-101	1940	-2	-12	-7
12041	2	-101	1905	-2	-12	-7
12046	-7	-95	1906	-2	-12	-7
12051	-10	-103	1921	-2	-12	-7
12056	-4	-98	1978	-2	-12	-7
12061	-3	-104	1927	-16	35	64
12066	-9	-105	1934	-16	35	64
12071	0	-104	1900	-16	35	64
12076	-20	-86	1814	-16	35	64
12081	-9	-95	1918	-16	35	64
12086	1	-102	1922	-16	35	64
12091	-6	-110	1933	-16	35	64
12096	-23	-106	1896	-71	-45	-2
12101	0	-106	1973	-71	-45	-2
12106	-5	-98	1902	-71	-45	-2
12111	-19	-101	1920	-71	-45	-2
12116	-1	-109	1924	-71	-45	-2
12121	-14	-105	1935	-71	-45	-2
12126	-10	-100	1914	-74	31	12
12131	-16	-92	1920	-74	31	12
12136	-10	-106	1936	-74	31	12
12141	-4	-99	1913	-74	31	12
12146	-6	-113	1905	-74	31	12
12151	-5	-101	1911	-74	31	12
12156	-3	-102	1927	-51	52	-92
12161	-6	-102	1914	-51	52	-92
12166	-6	-107	1922	-51	52	-92
12171	-5	-95	1923	-51	52	-92
12176	-1	-100	1909	-51	52	-92
12181	-7	-105	1920	-51	52	-92
12186	-10	-86	1737	-68	11	118
12191	-12	-102	1941	-68	11	118
12196	-6	-102	1917	-68	11	118
12201	-15	-95	1924	-68	11	118
12206	-5	-104	1903	-68	11	118
12211	-17	-104	1924	-68	11	118
12216	3	-105	1922	-38	47	61
12221	-11	-96	1902	-38	47	61
12226	-13	-108	1925	-38	47	61
12231	-9	-100	1929	-38	47	61
12236	-11	-103	1943	-38	47	61
12241	-10	-103	1915	-38	47	61
12246	-9	-109	1911	-38	47	61
12251	-3	-109	1912	-5	38	64
12256	-11	-105	1931	-5	38	64
12261	-11	-104	1909	-5	38	64
12266	-3	-98	1918	-5	38	64
12271	-6	-100	1926	-5	38	64
12276	-8	-97	1903	-5	38	64
12281	-6	-106	1930	-29	-33	31
12286	-10	-93	1904	-29	-33	31
12291	-9	-112	1931	-29	-33	31
12296	-10	-102	1895	-29	-33	31
12301	-5	-102	1906	-29	-33	31
12306	-7	-97	1923	-29	-33	31
12311	-13	-105	1907	-60	-31	-8
12316	-11	-106	1925	-60	-31	-8
12321	-12	-102	1922	-60	-31	-8
12326	-7	-104	1924	-60	-31	-8
12331	-6	-102	1914	-60	-31	-8
12336	-8	-104	1912	-60	-31	-8
12341	-7	-108	1916	-59	44	-34
12346	-12	-99	1913	-59	44	-34
12351	-8	-106	1915	-59	44	-34
12356	-11	-101	1922	-59	44	-34
12361	-5	-94	1924	-59	44	-34
12366	-12	-99	1926	-59	44	-34
12371	-8	-100	1916	-32	4	-77
12376	-11	-99	1904	-32	4	-77
12381	-7	-109	1923	-32	4	-77
12386	4	-107	1916	-32	4	-77
12391	-7	-101	1919	-32	4	-77
12396	-5	-103	1929	-32	4	-77
12401	-14	-96	1928	-32	4	-77
12406	-11	-109	1930	-58	45	77
12411	2	-105	1908	-58	45	77
12416	-7	-106	1912	-58	45	77
12421	-19	-102	1907	-58	45	77
12426	-9	-102	1906	-58	45	77
12431	-10	-104	1906	-58	45	77
12436	-1	-110	1928	-2	1	-111
12441	-10	-103	1923	-2	1	-111
12446	-8	-101	1922	-2	1	-111
12451	-10	-102	1914	-2	1	-111
12456	-9	-95	1915	-2	1	-111
12461	-3	-115	1916	-2	1	-111
12466	-12	-112	1917	-21	31	74
12471	-7	-102	1917	-21	31	74
12476	-6	-100	1915	-21	31	74
12481	-10	-112	1920	-21	31	74
12486	-10	-96	1905	-21	31	74
12491	-6	-105	1906	-21	31	74
12496	-9	-97	1922	-71	-15	5
12501	-4	-108	1925	-71	-15	5
12506	-11	-100	1933	-71	-15	5
12511	-11	-98	1918	-71	-15	5
12516	-12	-109	1923	-71	-15	5
12521	-6	-106	1923	-71	-15	5
12526	-2	-97	1937	-56	14	-27
12531	-8	-105	1916	-56	14	-27
12536	-6	-103	1922	-56	14	-27
12541	-7	-96	1912	-56	14	-27
12546	-9	-95	1910	-56	14	-27
12551	-5	-105	1915	-56	14	-27
12556	-9	-100	1918	-56	14	-27
12561	-11	-112	1920	-45	43	-10
12566	-7	-102	1910	-45	43	-10
12571	-11	-104	1922	-45	43	-10
12576	-12	-99	1915	-45	43	-10
12581	-9	-109	1910	-45	43	-10
12586	-7	-105	1930	-45	43	-10
12591	-7	-104	1921	-58	-25	-8
12596	-13	-100	1917	-58	-25	-8
12601	-11	-94	1913	-58	-25	-8
12606	-4	-103	1926	-58	-25	-8
12611	-9	-107	1913	-58	-25	-8
12616	1	-110	1911	-58	-25	-8
12621	-9	-102	1916	-74	-31	99
12626	-8	-108	1906	-74	-31	99
12631	-3	-102	1925	-74	-31	99
12636	-8	-99	1921	-74	-31	99
12641	0	-105	1917	-74	-31	99
12646	-1	-105	1917	-74	-31	99
12651	-11	-97	1920	-22	29	-87
12656	-8	-101	1919	-22	29	-87
12661	-13	-106	1917	-22	29	-87
12666	-3	-118	1933	-22	29	-87
12671	-15	-101	1936	-22	29	-87
12676	-6	-106	1927	-22	29	-87
12681	-12	-105	1916	-51	1	26
12686	-11	-101	1924	-51	1	26
12691	-6	-101	1927	-51	1	26
12696	-4	-102	1920	-51	1	26
12701	-9	-103	1906	-51	1	26
12706	-14	-96	1919	-51	1	26
12711	-9	-107	1901	-51	1	26
12716	-16	-101	1927	-10	3	37
12721	-7	-102	1921	-10	3	37
12726	-5	-106	1920	-10	3	37
12731	-8	-102	1923	-10	3	37
12736	-6	-111	1930	-10	3	37
12741	-11	-104	1918	-10	3	37
12746	-14	-101	1925	-54	-1	-11
12751	-5	-94	1923	-54	-1	-11
12756	-9	-97	1923	-54	-1	-11
12761	-5	-103	1930	-54	-1	-11
12766	1	-100	1932	-54	-1	-11
12771	-19	-101	1917	-54	-1	-11
12776	-3	-99	1909	-99	75	-34
12781	-5	-107	1929	-99	75	-34
12786	-11	-107	1921	-99	75	-34
12791	-2	-103	1922	-99	75	-34
12796	-6	-109	1918	-99	75	-34
12801	-4	-103	1918	-99	75	-34
12806	-5	-97	1923	-78	52	-46
12811	-10	-110	1936	-78	52	-46
12816	-10	-107	1913	-78	52	-46
12821	-2	-102	1916	-78	52	-46
12826	-7	-108	1915	-78	52	-46
12831	-7	-109	1918	-78	52	-46
12836	-7	-106	1936	-10	-5	-55
12841	-6	-104	1936	-10	-5	-55
12846	-7	-104	1924	-10	-5	-55
12851	-10	-107	1908	-10	-5	-55
12856	-10	-106	1919	-10	-5	-55
12861	-10	-96	1934	-10	-5	-55
12866	-14	-107	1923	-10	-5	-55
12871	-3	-103	1921	-39	52	-43
12876	-10	-102	1930	-39	52	-43
12881	-8	-101	1918	-39	52	-43
12886	-12	-102	1901	-39	52	-43
12891	-6	-96	1925	-39	52	-43
12896	-10	-98	1933	-39	52	-43
12901	-5	-109	1924	-22	-20	59
12906	-10	-107	1926	-22	-20	59
12911	-12	-104	1921	-22	-20	59
12916	-15	-101	1914	-22	-20	59
12921	-15	-104	1916	-22	-20	59
12926	0	-101	1936	-22	-20	59
12931	-9	-100	1928	-27	-5	26
12936	-5	-116	1916	-27	-5	26
12941	-3	-108	1927	-27	-5	26
12946	-24	-103	1911	-27	-5	26
12951	-15	-110	1928	-27	-5	26
12956	-11	-109	1922	-27	-5	26
12961	-4	-104	1924	-31	69	-20
12966	-5	-94	1914	-31	69	-20
12971	-8	-99	1907	-31	69	-20
12976	-8	-107	1925	-31	69	-20
12981	-9	-100	1917	-31	69	-20
12986	-8	-99	1925	-31	69	-20
12991	-8	-104	1915	-31	15	112
12996	-8	-105	1933	-31	15	112
13001	-11	-105	1922	-31	15	112
13006	-10	-106	1922	-31	15	112
13011	-12	-111	1921	-31	15	112
13016	-8	-101	1907	-31	15	112
13021	-13	-106	1918	-31	15	112
13026	-12	-105	1931	-104	15	-11
13031	-13	-106	1925	-104	15	-11
13036	-6	-104	1927	-104	15	-11
13041	-6	-107	1929	-104	15	-11
13046	-9	-96	1938	-104	15	-11
13051	-8	-104	1919	-104	15	-11
13056	-10	-100	1917	-61	54	102
13061	-5	-103	1911	-61	54	102
13066	7	-101	1920	-61	54	102
13071	-10	-97	1919	-61	54	102
13076	0	-111	1928	-61	54	102
13081	-7	-104	1937	-61	54	102
13086	-5	-102	1916	-60	19	-92
13091	-5	-101	1922	-60	19	-92
13096	-8	-102	1918	-60	19	-92
13101	-4	-97	1921	-60	19	-92
13106	6	-114	2005	-60	19	-92
13111	-3	-119	2060	-60	19	-92
13116	0	-98	1940	-61	-52	-14
13121	-7	-103	1824	-61	-52	-14
13126	-16	-104	1900	-61	-52	-14
13131	-8	-109	1995	-61	-52	-14
13136	-14	-105	1887	-61	-52	-14
13141	-8	-102	1878	-61	-52	-14
13146	-16	-100	1961	-48	41	-16
13151	-16	-104	1964	-48	41	-16
13156	-9	-107	1900	-48	41	-16
13161	1	-107	1899	-48	41	-16
13166	-10	-106	1931	-48	41	-16
13171	-13	-109	1919	-48	41	-16
13176	-8	-104	1907	-48	41	-16
13181	-6	-103	1924	-10	-15	-26
13186	-10	-92	1951	-10	-15	-26
13191	-9	-92	1891	-10	-15	-26
13196	-6	-100	1936	-10	-15	-26
13201	-13	-96	1933	-10	-15	-26
13206	-8	-95	1920	-10	-15	-26
13211	-10	-108	1907	-88	72	-20
13216	-13	-103	1924	-88	72	-20
13221	-12	-111	1923	-88	72	-20
13226	-10	-98	1903	-88	72	-20
13231	-13	-114	1927	-88	72	-20
13236	-15	-105	1910	-88	72	-20
13241	-10	-106	1916	-35	99	-77
13246	-15	-110	1910	-35	99	-77
13251	-7	-106	1920	-35	99	-77
13256	-2	-103	1922	-35	99	-77
13261	-11	-101	1825	-35	99	-77
13266	-9	-112	2004	-35	99	-77
13271	-14	-112	1931	-38	25	40
13276	-2	-109	1908	-38	25	40
13281	-8	-105	1876	-38	25	40
13286	-19	-99	1932	-38	25	40
13291	-2	-100	1942	-38	25	40
13296	-15	-107	1903	-38	25	40
13301	-17	-98	1904	-51	-5	-15
13306	-12	-101	1952	-51	-5	-15
13311	-7	-105	1939	-51	-5	-15
13316	-5	-101	1890	-51	-5	-15
13321	-10	-101	1916	-51	-5	-15
13326	-11	-107	1935	-51	-5	-15
13331	-15	-103	1931	-51	-5	-15
13336	-2	-101	1920	-17	7	-5
13341	-2	-105	1915	-17	7	-5
13346	-1	-98	1917	-17	7	-5
13351	-12	-100	1925	-17	7	-5
13356	-1	-107	1922	-17	7	-5
13361	-11	-102	1938	-17	7	-5
13366	0	-105	1927	-23	-46	61
13371	-10	-100	1912	-23	-46	61
13376	-9	-102	1922	-23	-46	61
13381	-9	-96	1919	-23	-46	61
13386	-2	-108	1914	-23	-46	61
13391	-2	-108	1933	-23	-46	61
13396	-5	-99	1911	-65	21	-34
13401	-3	-105	1905	-65	21	-34
13406	-7	-102	1919	-65	21	-34
13411	-9	-106	1928	-65	21	-34
13416	-13	-108	1921	-65	21	-34
13421	-3	-100	1915	-65	21	-34
13426	-7	-104	1916	-62	61	-26
13431	-9	-107	1928	-62	61	-26
13436	-3	-102	1917	-62	61	-26
13441	-10	-106	1916	-62	61	-26
13446	-10	-105	1913	-62	61	-26
13451	-8	-100	1919	-62	61	-26
13456	2	-98	1928	-74	40	-117
13461	-3	-100	1914	-74	40	-117
13466	-7	-102	1920	-74	40	-117
13471	-10	-109	1916	-74	40	-117
13476	5	-104	1915	-74	40	-117
13481	-7	-95	1919	-74	40	-117
13486	-9	-106	1917	-74	40	-117
13491	-16	-106	1915	-26	29	43
13496	-7	-105	1917	-26	29	43
13501	-11	-106	1908	-26	29	43
13506	-11	-102	1925	-26	29	43
13511	4	-109	1918	-26	29	43
13516	-9	-104	1922	-26	29	43
13521	-15	-100	1920	-68	19	-96
13526	-10	-105	1931	-68	19	-96
13531	-15	-110	1915	-68	19	-96
13536	-4	-102	1929	-68	19	-96
13541	-3	-97	1936	-68	19	-96
13546	-13	-104	1930	-68	19	-96
13551	-9	-105	1923	-15	19	80
13556	-12	-104	1922	-15	19	80
13561	-4	-101	1920	-15	19	80
13566	-14	-110	1940	-15	19	80
13571	-8	-106	1925	-15	19	80
13576	-10	-101	1924	-15	19	80
13581	-9	-96	1920	-41	-15	50
13586	-10	-102	1926	-41	-15	50
13591	-13	-108	1918	-41	-15	50
13596	-11	-98	1910	-41	-15	50
13601	-11	-109	1918	-41	-15	50
13606	-9	-108	1923	-41	-15	50
13611	-5	-111	1923	-51	0	14
13616	-6	-99	1911	-51	0	14
13621	0	-107	1912	-51	0	14
13626	-3	-104	1926	-51	0	14
13631	-8	-103	1917	-51	0	14
13636	-10	-104	1915	-51	0	14
13641	-8	-97	1910	-51	0	14
13646	-16	-100	1930	-55	55	-71
13651	-7	-113	1930	-55	55	-71
13656	-12	-106	1932	-55	55	-71
13661	-5	-108	1920	-55	55	-71
13666	-9	-102	1910	-55	55	-71
13671	-14	-98	1921	-55	55	-71
13676	-9	-110	1921	-63	-11	-4
13681	-2	-106	1915	-63	-11	-4
13686	0	-98	1921	-63	-11	-4
13691	3	-105	1920	-63	-11	-4
13696	-8	-104	1917	-63	-11	-4
13701	-13	-102	1916	-63	-11	-4
13706	-16	-105	1937	-42	37	97
13711	-9	-94	1913	-42	37	97
13716	-11	-102	1913	-42	37	97
13721	-7	-109	1922	-42	37	97
13726	-8	-104	1919	-42	37	97
13731	-7	-108	1923	-42	37	97
13736	-5	-106	1935	-51	-3	-117
13741	-5	-109	1916	-51	-3	-117
13746	-5	-100	1914	-51	-3	-117
13751	1	-105	1922	-51	-3	-117
13756	-6	-106	1923	-51	-3	-117
13761	-4	-107	1926	-51	-3	-117
13766	-3	-103	1920	-28	9	-45
13771	-10	-102	1911	-28	9	-45
13776	0	-100	1918	-28	9	-45
13781	-7	-111	1911	-28	9	-45
13786	-7	-99	1930	-28	9	-45
13791	-7	-103	1929	-28	9	-45
13796	-9	-110	1921	-28	9	-45
13801	-12	-109	1920	-35	-13	-7
13806	-7	-100	1913	-35	-13	-7
13811	-16	-95	1916	-35	-13	-7
13816	-12	-111	1920	-35	-13	-7
13821	-9	-107	1917	-35	-13	-7
13826	-3	-99	1919	-35	-13	-7
13831	-5	-103	1926	-74	8	-27
13836	-7	-99	1934	-74	8	-27
13841	-14	-103	1901	-74	8	-27
13846	-7	-111	1920	-74	8	-27
13851	-6	-115	1921	-74	8	-27
13856	-15	-96	1913	-74	8	-27
13861	-13	-95	1918	-62	67	-46
13866	-6	-109	1907	-62	67	-46
13871	-7	-105	1921	-62	67	-46
13876	-10	-97	1925	-62	67	-46
13881	-5	-101	1911	-62	67	-46
13886	-1	-96	1905	-62	67	-46
13891	-9	-99	1908	-78	48	-59
13896	-9	-98	1918	-78	48	-59
13901	-10	-104	1915	-78	48	-59
13906	-7	-108	1921	-78	48	-59
13911	-7	-108	1927	-78	48	-59
13916	-7	-103	1917	-78	48	-59
13921	1	-102	1908	-24	9	90
13926	-1	-101	1933	-24	9	90
13931	-5	-100	1919	-24	9	90
13936	-11	-98	1930	-24	9	90
13941	-11	-103	1920	-24	9	90
13946	0	-107	1921	-24	9	90
13951	-4	-109	1920	-24	9	90
13956	-12	-99	1908	-58	-1	-51
13961	-9	-100	1932	-58	-1	-51
13966	-16	-109	1920	-58	-1	-51
13971	-7	-98	1912	-58	-1	-51
13976	-4	-99	1921	-58	-1	-51
13981	-13	-100	1920	-58	-1	-51
13986	0	-107	1927	-79	38	34
13991	-7	-105	1929	-79	38	34
13996	-7	-99	1917	-79	38	34
14001	-7	-104	1930	-79	38	34
14006	-3	-105	1922	-79	38	34
14011	-10	-99	1919	-79	38	34
14016	-3	-103	1922	-32	-38	34
14021	-14	-104	1922	-32	-38	34
14026	-10	-106	1922	-32	-38	34
14031	0	-95	1924	-32	-38	34
14036	-10	-101	1899	-32	-38	34
14041	-11	-103	1919	-32	-38	34
14046	-5	-105	1920	-49	17	-15
14051	-15	-104	1920	-49	17	-15
14056	-9	-109	1927	-49	17	-15
14061	0	-101	1917	-49	17	-15
14066	-11	-109	1916	-49	17	-15
14071	-8	-96	1914	-49	17	-15
14076	-14	-100	1917	-64	52	-29
14081	-8	-99	1920	-64	52	-29
14086	-11	-102	1926	-64	52	-29
14091	-4	-101	1914	-64	52	-29
14096	-8	-103	1917	-64	52	-29
14101	-8	-107	1917	-64	52	-29
14106	-13	-99	1923	-64	52	-29
14111	1	-107	1911	-48	4	-55
14116	-7	-102	1927	-48	4	-55
14121	-13	-109	1925	-48	4	-55
14126	-11	-109	1918	-48	4	-55
14131	-7	-100	1921	-48	4	-55
14136	-12	-106	1918	-48	4	-55
14141	-5	-103	1928	-44	4	71
14146	-8	-101	1922	-44	4	71
14151	-7	-106	1909	-44	4	71
14156	-8	-106	1924	-44	4	71
14161	-12	-107	1931	-44	4	71
14166	-6	-110	1918	-44	4	71
14171	-7	-105	1932	-54	4	-11
14176	-4	-102	1919	-54	4	-11
14181	-4	-104	1932	-54	4	-11
14186	-14	-101	1916	-54	4	-11
14191	-9	-108	1918	-54	4	-11
14196	-11	-100	1909	-54	4	-11
14201	-3	-101	1914	-49	-15	81
14206	-4	-113	1926	-49	-15	81
14211	-3	-95	1923	-49	-15	81
14216	-10	-109	1912	-49	-15	81
14221	-13	-102	1937	-49	-15	81
14226	-13	-94	1913	-49	-15	81
14231	-6	-103	1933	-78	48	-62
14236	-12	-104	1918	-78	48	-62
14241	-9	-96	1931	-78	48	-62
14246	-9	-103	1911	-78	48	-62
14251	-5	-110	1926	-78	48	-62
14256	-12	-104	1921	-78	48	-62
14261	0	-92	1920	-78	48	-62
14266	0	-104	1923	-34	-15	-59
14271	1	-97	1909	-34	-15	-59
14276	0	-108	1910	-34	-15	-59
14281	-13	-102	1927	-34	-15	-59
14286	-9	-107	1923	-34	-15	-59
14291	-9	-107	1908	-34	-15	-59
14296	-11	-103	1918	-52	12	-10
14301	-12	-99	1928	-52	12	-10
14306	-14	-107	1934	-52	12	-10
14311	-12	-99	1910	-52	12	-10
14316	-5	-110	1912	-52	12	-10
14321	-12	-108	1936	-52	12	-10
14326	-7	-106	1908	-39	-9	-51
14331	-7	-104	1903	-39	-9	-51
14336	-3	-102	1919	-39	-9	-51
14341	-7	-101	1918	-39	-9	-51
14346	0	-100	1922	-39	-9	-51
14351	0	-104	1906	-39	-9	-51
14356	-8	-101	1901	-71	27	97
14361	0	-110	1924	-71	27	97
14366	-5	-103	1927	-71	27	97
14371	1	-103	1928	-71	27	97
14376	-1	-94	1924	-71	27	97
14381	-13	-108	1921	-71	27	97
14386	-6	-102	1916	-62	32	-116
14391	-11	-105	1928	-62	32	-116
14396	4	-109	1925	-62	32	-116
14401	-11	-103	1922	-62	32	-116
14406	0	-97	1922	-62	32	-116
14411	-16	-102	1934	-62	32	-116
14416	-6	-99	1914	-62	32	-116
14421	-10	-108	1928	-33	14	-16
14426	-16	-105	1918	-33	14	-16
14431	-11	-104	1921	-33	14	-16
14436	-7	-101	1909	-33	14	-16
14441	-14	-106	1930	-33	14	-16
14446	-12	-103	1916	-33	14	-16
14451	-6	-105	1924	-31	-16	62
14456	-3	-107	1919	-31	-16	62
14461	-5	-104	1924	-31	-16	62
14466	2	-101	1908	-31	-16	62
14471	-4	-97	1921	-31	-16	62
14476	-15	-104	1926	-31	-16	62
14481	-9	-110	1917	-33	-3	-40
14486	-9	-102	1922	-33	-3	-40
14491	-5	-101	1926	-33	-3	-40
14496	-5	-105	1914	-33	-3	-40
14501	-12	-102	1933	-33	-3	-40
14506	-9	-102	1926	-33	-3	-40
14511	-6	-104	1926	-64	-15	20
14516	-2	-99	1921	-64	-15	20
14521	-6	-93	1913	-64	-15	20
14526	-13	-105	1917	-64	-15	20
14531	-7	-100	1922	-64	-15	20
14536	-4	-109	1906	-64	-15	20
14541	-14	-107	1918	-67	49	-23
14546	-8	-100	1919	-67	49	-23
14551	2	-96	1938	-67	49	-23
14556	0	-97	1915	-67	49	-23
14561	-6	-103	1919	-67	49	-23
14566	-3	-106	1913	-67	49	-23
14571	2	-105	1919	-67	49	-23
14576	-6	-105	1924	-62	-7	130
14581	-12	-109	1921	-62	-7	130
14586	-10	-101	1910	-62	-7	130
14591	-5	-107	1922	-62	-7	130
14596	-14	-106	1922	-62	-7	130
14601	-8	-100	1927	-62	-7	130
14606	-11	-102	1922	-63	9	-64
14611	3	-100	1927	-63	9	-64
14616	-11	-108	1920	-63	9	-64
14621	-9	-105	1920	-63	9	-64
14626	-4	-101	1931	-63	9	-64
14631	-9	-103	1938	-63	9	-64
14636	-7	-102	1921	-44	2	74
14641	-9	-104	1921	-44	2	74
14646	-4	-108	1930	-44	2	74
14651	-5	-106	1919	-44	2	74
14656	-8	-104	1929	-44	2	74
14661	-8	-116	1920	-44	2	74
14666	-12	-108	1928	-16	12	7
14671	-13	-107	1919	-16	12	7
14676	-13	-105	1912	-16	12	7
14681	-10	-99	1906	-16	12	7
14686	-8	-99	1889	-16	12	7
14691	-9	-96	1917	-16	12	7
14696	0	-107	1927	-74	48	-103
14701	2	-104	1912	-74	48	-103
14706	-10	-101	1919	-74	48	-103
14711	-8	-105	1919	-74	48	-103
14716	-11	-104	1916	-74	48	-103
14721	-11	-100	1923	-74	48	-103
14726	-10	-103	1910	-74	48	-103
14731	-5	-91	1919	-42	3	2
14736	-6	-105	1925	-42	3	2
14741	-11	-102	1916	-42	3	2
14746	-4	-106	1918	-42	3	2
14751	-10	-100	1931	-42	3	2
14756	-1	-100	1918	-42	3	2
14761	-8	-106	1925	-90	7	-23
14766	-8	-106	1913	-90	7	-23
14771	-5	-111	1921	-90	7	-23
14776	-11	-108	1928	-90	7	-23
14781	-7	-94	1918	-90	7	-23
14786	-5	-103	1906	-90	7	-23
14791	-10	-96	1917	-67	14	116
14796	-3	-102	1910	-67	14	116
14801	-10	-103	1925	-67	14	116
14806	-2	-102	1928	-67	14	116
14811	-6	-104	1926	-67	14	116
14816	-8	-104	1913	-67	14	116
14821	-9	-101	1904	-28	5	-67
14826	-16	-111	1923	-28	5	-67
14831	-15	-104	1928	-28	5	-67
14836	-1	-103	1913	-28	5	-67
14841	1	-106	1913	-28	5	-67
14846	-2	-113	1914	-28	5	-67
14851	-8	-100	1906	-65	50	-61
14856	-15	-102	1915	-65	50	-61
14861	-9	-102	1926	-65	50	-61
14866	-10	-104	1921	-65	50	-61
14871	-6	-104	1922	-65	50	-61
14876	-3	-98	1916	-65	50	-61
14881	-16	-106	1925	-65	50	-61
14886	-12	-102	1921	-49	17	9
14891	-9	-107	1920	-49	17	9
14896	-2	-110	1934	-49	17	9
14901	-1	-93	1929	-49	17	9
14906	-7	-109	1922	-49	17	9
14911	-12	-112	1916	-49	17	9
14916	-4	-106	1926	-55	24	17
14921	-11	-96	1911	-55	24	17
14926	0	-102	1927	-55	24	17
14931	-10	-109	1922	-55	24	17
14936	0	-103	1924	-55	24	17
14941	-14	-100	1920	-55	24	17
14946	-3	-105	1920	-33	45	9
14951	-12	-105	1925	-33	45	9
14956	-6	-107	1914	-33	45	9
14961	-4	-103	1916	-33	45	9
14966	-9	-105	1917	-33	45	9
14971	-12	-107	1918	-33	45	9
14976	-7	-103	1916	-30	-3	4
14981	-5	-104	1918	-30	-3	4
14986	-6	-105	1904	-30	-3	4
14991	-5	-106	1920	-30	-3	4
14996	-15	-101	1920	-30	-3	4
15001	-7	-103	1921	-30	-3	4
15006	-4	-97	1930	-84	17	94
15011	-5	-107	1922	-84	17	94
15016	4	-115	1926	-84	17	94
15021	-10	-102	1921	-84	17	94
15026	-10	-99	1908	-84	17	94
15031	-13	-106	1925	-84	17	94
15036	-2	-101	1923	-84	17	94
15041	-7	-107	1926	-24	7	-14
15046	-6	-95	1930	-24	7	-14
15051	-6	-101	1904	-24	7	-14
15056	-7	-98	1929	-24	7	-14
15061	-11	-107	1922	-24	7	-14
15066	-2	-108	1923	-24	7	-14
15071	-7	-107	1908	-22	-89	64
15076	-1	-101	1904	-22	-89	64
15081	-12	-104	1923	-22	-89	64
15086	-4	-98	1918	-22	-89	64
15091	-11	-99	1921	-22	-89	64
15096	-2	-101	1920	-22	-89	64
15101	-9	-99	1927	-35	-5	12
15106	-8	-106	1912	-35	-5	12
15111	-9	-98	1914	-35	-5	12
15116	-14	-108	1905	-35	-5	12
15121	-6	-97	1921	-35	-5	12
15126	-4	-107	1925	-35	-5	12
15131	-1	-102	1921	-64	35	-2
15136	-8	-99	1925	-64	35	-2
15141	-6	-105	1926	-64	35	-2
15146	-3	-100	1916	-64	35	-2
15151	-6	-106	1924	-64	35	-2
15156	-12	-102	1925	-64	35	-2
15161	-1	-106	1916	-62	-11	-48
15166	-11	-94	1914	-62	-11	-48
15171	-9	-98	1917	-62	-11	-48
15176	-11	-104	1911	-62	-11	-48
15181	-14	-107	1922	-62	-11	-48
15186	-9	-102	1917	-62	-11	-48
15191	-5	-102	1916	-62	-11	-48
15196	-2	-105	1914	-103	13	-51
15201	-6	-105	1917	-103	13	-51
15206	-10	-108	1914	-103	13	-51
15211	-13	-111	1923	-103	13	-51
15216	-12	-104	1919	-103	13	-51
15221	-11	-107	1912	-103	13	-51
15226	-6	-101	1918	-62	25	11
15231	-12	-109	1924	-62	25	11
15236	-9	-98	1910	-62	25	11
15241	-9	-104	1929	-62	25	11
15246	-6	-100	1914	-62	25	11
15251	-7	-99	1923	-62	25	11
15256	-9	-102	1916	-51	15	20
15261	-8	-106	1924	-51	15	20
15266	-9	-109	1928	-51	15	20
15271	-8	-99	1906	-51	15	20
15276	-7	-104	1927	-51	15	20
15281	-10	-107	1908	-51	15	20
15286	-5	-103	1916	-68	19	5
15291	-8	-100	1912	-68	19	5
15296	-5	-102	1924	-68	19	5
15301	-11	-102	1918	-68	19	5
15306	-5	-110	1929	-68	19	5
15311	-7	-109	1906	-68	19	5
15316	-9	-114	1914	-64	40	64
15321	-17	-104	1925	-64	40	64
15326	-2	-101	1932	-64	40	64
15331	-11	-104	1908	-64	40	64
15336	-5	-104	1920	-64	40	64
15341	-11	-99	1914	-64	40	64
15346	-11	-103	1916	-64	40	64
15351	-12	-110	1917	-32	-12	-23
15356	2	-110	1917	-32	-12	-23
15361	-7	-99	1902	-32	-12	-23
15366	-2	-107	1919	-32	-12	-23
15371	-10	-100	1914	-32	-12	-23
15376	-11	-103	1932	-32	-12	-23
15381	-8	-103	1922	-64	69	-40
15386	-12	-95	1918	-64	69	-40
15391	-8	-104	1908	-64	69	-40
15396	-3	-100	1918	-64	69	-40
15401	-6	-108	1913	-64	69	-40
15406	-11	-105	1925	-64	69	-40
15411	-2	-107	1936	-74	20	-59
15416	-6	-105	1915	-74	20	-59
15421	-8	-103	1932	-74	20	-59
15426	-3	-98	1919	-74	20	-59
15431	-15	-107	1916	-74	20	-59
15436	-8	-107	1906	-74	20	-59
15442	4	-101	1918	-15	17	56
15446	-6	-107	1930	-15	17	56
15451	-14	-100	1922	-15	17	56
15456	-11	-105	1913	-15	17	56
15461	-7	-100	1922	-15	17	56
15466	-20	-102	1919	-15	17	56
15471	-9	-100	1925	-28	41	-122
15476	-6	-109	1913	-28	41	-122
15481	-7	-101	1914	-28	41	-122
15486	-10	-104	1925	-28	41	-122
15491	-12	-107	1932	-28	41	-122
15496	-2	-100	1924	-28	41	-122
15501	-6	-97	1917	-28	41	-122
15506	-7	-98	1931	-32	-13	-4
15511	-4	-102	1913	-32	-13	-4
15516	-7	-107	1913	-32	-13	-4
15521	-8	-102	1919	-32	-13	-4
15526	-11	-99	1939	-32	-13	-4
15531	-12	-100	1919	-32	-13	-4
15536	-8	-103	1915	-25	-35	24
15541	-10	-104	1914	-25	-35	24
15546	-8	-107	1923	-25	-35	24
15551	-5	-103	1934	-25	-35	24
15556	-8	-103	1924	-25	-35	24
15561	-6	-106	1915	-25	-35	24
15566	-7	-104	1915	-21	5	-33
15571	-7	-108	1928	-21	5	-33
15576	-10	-102	1922	-21	5	-33
15581	-6	-101	1923	-21	5	-33
15586	-4	-108	1919	-21	5	-33
15591	-17	-106	1905	-21	5	-33
15596	-6	-106	1920	-80	39	-17
15601	-4	-108	1907	-80	39	-17
15606	-17	-103	1904	-80	39	-17
15611	-11	-112	1923	-80	39	-17
15616	-2	-108	1925	-80	39	-17
15621	-6	-98	1940	-80	39	-17
15626	-16	-110	1912	-60	-11	-46
15631	-8	-97	1911	-60	-11	-46
15636	-9	-106	1918	-60	-11	-46
15641	-11	-94	1911	-60	-11	-46
15646	-8	-100	1927	-60	-11	-46
15651	-11	-102	1914	-60	-11	-46
15656	4	-105	1914	-60	-11	-46
15661	-20	-114	1920	-39	27	74
15666	-12	-107	1916	-39	27	74
15671	-10	-107	1931	-39	27	74
15676	-3	-105	1914	-39	27	74
15681	-2	-101	1925	-39	27	74
15686	-7	-96	1921	-39	27	74
15691	-5	-110	1915	-57	15	-114
15696	-7	-95	1927	-57	15	-114
15701	-13	-99	1922	-57	15	-114
15706	-5	-104	1918	-57	15	-114
15711	-2	-109	1922	-57	15	-114
15716	-5	-99	1921	-57	15	-114
15721	-13	-106	1924	-15	17	4
15726	-8	-115	1923	-15	17	4
15731	-3	-98	1930	-15	17	4
15736	-2	-104	1932	-15	17	4
15741	-9	-105	1909	-15	17	4
15746	-13	-104	1922	-15	17	4
15751	-4	-105	1914	-6	-9	67
15756	-4	-102	1916	-6	-9	67
15761	-2	-97	1940	-6	-9	67
15766	-4	-102	1924	-6	-9	67
15771	-8	-104	1916	-6	-9	67
15776	-5	-106	1909	-6	-9	67
15781	-16	-108	1915	-34	22	5
15786	-7	-104	1915	-34	22	5
15791	-14	-99	1925	-34	22	5
15796	-5	-104	1917	-34	22	5
15801	-7	-104	1903	-34	22	5
15806	-8	-92	1920	-34	22	5
15811	-8	-94	1909	-34	22	5
15816	-1	-107	1923	-68	31	-48
15821	-7	-105	1910	-68	31	-48
15826	-3	-108	1907	-68	31	-48
15831	-1	-98	1915	-68	31	-48
15836	-3	-105	1922	-68	31	-48
15841	-6	-107	1915	-68	31	-48
15846	-8	-103	1919	-68	-25	-125
15851	-13	-107	1916	-68	-25	-125
15856	-6	-102	1920	-68	-25	-125
15861	1	-104	1931	-68	-25	-125
15866	-18	-104	1930	-68	-25	-125
15871	-13	-100	1932	-68	-25	-125
15876	-4	-107	1909	-64	45	99
15881	-3	-112	1918	-64	45	99
15886	-10	-97	1919	-64	45	99
15891	-8	-110	1917	-64	45	99
15896	-5	-102	1928	-64	45	99
15901	-5	-104	1922	-64	45	99
15906	-9	-102	1919	-54	-33	-114
15911	-16	-104	1934	-54	-33	-114
15916	-6	-97	1917	-54	-33	-114
15921	-4	-111	1912	-54	-33	-114
15926	-6	-102	1926	-54	-33	-114
15931	-7	-96	1922	-54	-33	-114
15936	1	-106	1914	-61	19	-27
15941	-9	-100	1909	-61	19	-27
15946	1	-98	1927	-61	19	-27
15951	-16	-101	1915	-61	19	-27
15956	-11	-107	1920	-61	19	-27
15961	-18	-110	1919	-61	19	-27
15966	-14	-109	1919	-61	19	-27
15971	-5	-99	1922	-33	15	17
15976	-2	-104	1908	-33	15	17
15981	-5	-98	1913	-33	15	17
15986	-8	-107	1918	-33	15	17
15991	-6	-104	1922	-33	15	17
15996	-2	-99	1920	-33	15	17
16001	-12	-106	1925	-81	38	-30
16006	-6	-94	1912	-81	38	-30
16011	-13	-106	1907	-81	38	-30
16016	-17	-108	1918	-81	38	-30
16021	-13	-108	1919	-81	38	-30
16026	-8	-101	1920	-81	38	-30
16031	-3	-102	1923	-64	-3	-26
16036	-9	-103	1919	-64	-3	-26
16041	-6	-105	1915	-64	-3	-26
16046	-5	-109	1916	-64	-3	-26
16051	-9	-106	1919	-64	-3	-26
16056	-11	-105	1932	-64	-3	-26
16061	-9	-104	1910	-32	47	-14
16066	-2	-99	1918	-32	47	-14
16071	-7	-108	1920	-32	47	-14
16076	-8	-100	1923	-32	47	-14
16081	-6	-108	1926	-32	47	-14
16086	-5	-96	1912	-32	47	-14
16091	-12	-107	1919	-36	-13	-5
16096	-6	-106	1901	-36	-13	-5
16101	2	-100	1904	-36	-13	-5
16106	-8	-104	1907	-36	-13	-5
16111	3	-106	1919	-36	-13	-5
16116	-6	-99	1932	-36	-13	-5
16121	-10	-103	1914	-36	-13	-5
16126	-12	-104	1921	-15	-13	71
16131	-7	-111	1922	-15	-13	71
16136	-8	-95	1921	-15	-13	71
16141	-7	-101	1933	-15	-13	71
16146	-7	-104	1915	-15	-13	71
16151	-11	-100	1923	-15	-13	71
16156	-6	-108	1918	-34	31	58
16161	-9	-101	1904	-34	31	58
16166	-4	-109	1906	-34	31	58
16171	-9	-96	1918	-34	31	58
16176	0	-104	1900	-34	31	58
16181	-11	-105	1936	-34	31	58
16186	-14	-106	1921	3	24	-16
16191	-12	-98	1916	3	24	-16
16196	-1	-96	1942	3	24	-16
16201	-8	-105	1915	3	24	-16
16206	-10	-101	1918	3	24	-16
16211	-1	-113	1928	3	24	-16
16216	-12	-100	1911	-41	90	-48
16221	-2	-110	1944	-41	90	-48
16226	-2	-99	1926	-41	90	-48
16231	-14	-102	1915	-41	90	-48
16236	2	-97	1917	-41	90	-48
16241	-9	-108	1922	-41	90	-48
16246	-12	-103	1910	-80	58	115
16251	-8	-110	1922	-80	58	115
16256	-17	-100	1907	-80	58	115
16261	-10	-105	1921	-80	58	115
16266	-3	-105	1928	-80	58	115
16271	-10	-112	1922	-80	58	115
16276	-2	-101	1916	-80	58	115
16281	-11	-107	1915	-74	31	2
16286	-2	-101	1911	-74	31	2
16291	-5	-102	1935	-74	31	2
16296	-13	-103	1908	-74	31	2
16301	-2	-100	1915	-74	31	2
16306	-11	-103	1917	-74	31	2
16311	-2	-106	1925	-63	17	4
16316	-5	-100	1912	-63	17	4
16321	-2	-104	1916	-63	17	4
16326	-5	-89	1919	-63	17	4
16331	-12	-99	1922	-63	17	4
16336	-1	-96	1901	-63	17	4
16341	-7	-104	1928	39	59	-12
16346	2	-103	1922	39	59	-12
16351	-9	-107	1931	39	59	-12
16356	-17	-105	1923	39	59	-12
16361	-12	-107	1913	39	59	-12
16366	-14	-104	1929	39	59	-12
16371	-3	-107	1928	-22	-32	39
16376	-4	-98	1919	-22	-32	39
16381	-9	-101	1923	-22	-32	39
16386	-13	-108	1924	-22	-32	39
16391	-11	-107	1908	-22	-32	39
16396	-3	-103	1937	-22	-32	39
16401	-3	-105	1925	-52	38	-4
16406	-2	-101	1921	-52	38	-4
16411	-8	-102	1911	-52	38	-4
16416	-11	-93	1908	-52	38	-4
16421	-11	-103	1911	-52	38	-4
16426	-9	-104	1921	-52	38	-4
16431	-7	-103	1899	-52	38	-4
16436	-8	-111	1919	-269	-27	-23
16441	-6	-106	1928	-269	-27	-23
16446	-10	-92	1921	-269	-27	-23
16451	-11	-82	1910	-269	-27	-23
16456	-3	-81	1926	-269	-27	-23
16461	-5	-88	1931	-269	-27	-23
16466	-1	-214	1891	182	27	-20
16471	-22	-707	1875	182	27	-20
16476	-87	-180	2062	182	27	-20
16481	-88	223	2157	182	27	-20
16486	-184	-30	1879	182	27	-20
16491	-182	152	1966	182	27	-20
16496	-68	88	2006	128	37	-171
16501	17	-85	1951	128	37	-171
16506	40	-67	1901	128	37	-171
16511	31	-127	1954	128	37	-171
16516	-1	-127	1905	128	37	-171
16521	-29	-35	1893	128	37	-171
16526	-19	37	1912	96	233	-140
16531	-80	-9	1931	96	233	-140
16536	-76	-86	1992	96	233	-140
16541	13	-48	1949	96	233	-140
16546	-13	-3	1963	96	233	-140
16551	-59	-8	2061	96	233	-140
16556	-121	-34	2109	-276	266	-434
16561	-95	45	2088	-276	266	-434
16566	-59	23	1993	-276	266	-434
16571	-40	44	1947	-276	266	-434
16576	-4	60	1882	-276	266	-434
16581	9	50	1860	-276	266	-434
16586	29	-18	1884	-276	266	-434
16591	6	-35	1906	-143	399	-169
16596	-39	-31	1970	-143	399	-169
16601	-113	-65	2036	-143	399	-169
16606	-112	-102	2085	-143	399	-169
16611	-111	-103	2042	-143	399	-169
16616	-78	-119	1947	-143	399	-169
16621	-4	-92	1864	-52	291	-124
16626	-69	-9	1820	-52	291	-124
16631	-140	-19	1876	-52	291	-124
16636	-156	-21	1884	-52	291	-124
16641	-172	-21	1947	-52	291	-124
16646	-205	-55	1953	-52	291	-124
16651	-207	-85	1975	12	410	-51
16656	-221	-96	1982	12	410	-51
16661	-245	-103	1964	12	410	-51
16666	-259	-83	1958	12	410	-51
16671	-296	-77	2002	12	410	-51
16676	-297	-74	1954	12	410	-51
16681	-313	-68	1955	25	398	-40
16686	-343	-86	1957	25	398	-40
16691	-378	-74	1971	25	398	-40
16696	-349	-48	1864	25	398	-40
16701	-358	-61	1830	25	398	-40
16706	-306	-64	1768	25	398	-40
16711	-272	-60	1698	-96	293	-77
16716	-272	-82	1764	-96	293	-77
16721	-271	-54	1706	-96	293	-77
16726	-310	-87	1919	-96	293	-77
16731	-324	-112	1900	-96	293	-77
16736	-316	-100	1881	-96	293	-77
16741	-328	-63	1890	-96	293	-77
16746	-292	-81	1871	1181	175	77
16751	-287	-112	1826	1181	175	77
16756	-261	-124	1863	1181	175	77
16761	-262	-112	1973	1181	175	77
16766	-271	-98	1895	1181	175	77
16771	57	-766	1772	1181	175	77
16776	-406	-14	1892	150	355	-101
16781	-457	194	1721	150	355	-101
16786	36	-90	1948	150	355	-101
16791	-200	-194	1949	150	355	-101
16796	-206	32	2066	150	355	-101
16801	-332	59	1924	150	355	-101
16806	-353	-37	1889	985	489	-222
16811	-392	-56	1925	985	489	-222
16816	-335	-46	1852	985	489	-222
16821	-426	31	1957	985	489	-222
16826	-489	74	1939	985	489	-222
16831	-556	49	2096	985	489	-222
16836	-537	9	2016	1203	318	-7
16841	-375	145	2229	1203	318	-7
16846	-597	215	1843	1203	318	-7
16851	-393	71	1646	1203	318	-7
16856	-323	126	1758	1203	318	-7
16861	-420	141	1595	1203	318	-7
16866	-381	252	1698	1480	96	-194
16871	-436	212	1651	1480	96	-194
16876	-397	218	1726	1480	96	-194
16881	-434	266	1827	1480	96	-194
16886	-423	367	1782	1480	96	-194
16891	-410	349	1722	1480	96	-194
16896	-463	411	1684	1480	96	-194
16901	-432	431	1721	1118	-86	-59
16906	-493	431	1661	1118	-86	-59
16911	-512	527	1703	1118	-86	-59
16916	-521	575	1743	1118	-86	-59
16921	-512	557	1683	1118	-86	-59
16926	-486	536	1630	1118	-86	-59
16931	-482	547	1574	268	188	-108
16936	-508	583	1603	268	188	-108
16941	-548	717	1746	268	188	-108
16946	-570	693	2099	268	188	-108
16951	-507	684	2118	268	188	-108
16956	-518	697	2025	268	188	-108
16961	-581	650	1907	445	142	33
16966	-539	901	1807	445	142	33
16971	-551	738	1706	445	142	33
16976	-410	654	1643	445	142	33
16981	-490	701	1756	445	142	33
16986	-503	732	1718	445	142	33
16991	-501	749	1697	156	129	-199
16996	-531	736	1746	156	129	-199
17001	-584	766	1711	156	129	-199
17006	-526	793	1688	156	129	-199
17011	-572	794	1622	156	129	-199
17016	-568	847	1676	156	129	-199
17021	-566	821	1663	-83	-19	2
17026	-500	761	1637	-83	-19	2
17031	-535	821	1599	-83	-19	2
17036	-570	766	1325	-83	-19	2
17041	-469	804	1807	-83	-19	2
17046	-475	756	1645	-83	-19	2
17051	-448	741	1661	-83	-19	2
17056	-423	737	1635	47	22	74
17061	-408	719	1571	47	22	74
17066	-535	858	1758	47	22	74
17071	-552	897	1781	47	22	74
17076	-523	876	1798	47	22	74
17081	-529	887	1775	47	22	74
17086	-562	909	1730	9	5	27
17091	-533	877	1692	9	5	27
17096	-527	853	1679	9	5	27
17101	-547	835	1659	9	5	27
17106	-548	821	1617	9	5	27
17111	-549	842	1616	9	5	27
17116	-564	831	1606	199	-6	-32
17121	-556	841	1615	199	-6	-32
17126	-541	859	1585	199	-6	-32
17131	-529	849	1599	199	-6	-32
17136	-581	851	1671	199	-6	-32
17141	-533	877	1681	199	-6	-32
17146	-566	892	1681	69	35	-1
17151	-570	875	1636	69	35	-1
17156	-554	886	1597	69	35	-1
17161	-572	868	1632	69	35	-1
17166	-575	891	1646	69	35	-1
17171	-617	885	1689	69	35	-1
17176	-575	894	1727	37	17	-17
17181	-531	895	1716	37	17	-17
17186	-519	866	1664	37	17	-17
17191	-496	860	1663	37	17	-17
17196	-489	843	1647	37	17	-17
17201	-519	851	1657	37	17	-17
17206	-551	907	1668	37	17	-17
17211	-554	921	1662	150	-55	-156
17216	-549	903	1663	150	-55	-156
17221	-558	889	1617	150	-55	-156
17226	-553	938	1604	150	-55	-156
17231	-560	923	1610	150	-55	-156
17236	-575	924	1612	150	-55	-156
17241	-538	887	1606	271	-78	109
17246	-512	872	1597	271	-78	109
17251	-550	866	1609	271	-78	109
17256	-555	886	1630	271	-78	109
17261	-551	803	1642	271	-78	109
17266	-543	806	1658	271	-78	109
17271	-503	904	1650	442	40	29
17276	-542	942	1709	442	40	29
17281	-581	1001	1733	442	40	29
17286	-538	1023	1714	442	40	29
17291	-571	1008	1678	442	40	29
17296	-671	1042	1655	442	40	29
17301	-608	1035	1613	372	28	-7
17306	-629	1039	1642	372	28	-7
17311	-573	974	1613	372	28	-7
17316	-569	930	1586	372	28	-7
17321	-506	919	1570	372	28	-7
17326	-477	942	1556	372	28	-7
17331	-480	956	1592	195	50	-17
17336	-481	961	1604	195	50	-17
17341	-503	997	1594	195	50	-17
17346	-553	1052	1584	195	50	-17
17351	-597	1099	1597	195	50	-17
17356	-582	1090	1567	195	50	-17
17361	-577	1084	1546	195	50	-17
17366	-534	1063	1546	174	84	-48
17371	-524	1060	1566	174	84	-48
17376	-527	1067	1562	174	84	-48
17381	-543	1061	1534	174	84	-48
17386	-536	1060	1508	174	84	-48
17391	-532	1066	1518	174	84	-48
17396	-552	1092	1531	52	58	-12
17401	-567	1103	1508	52	58	-12
17406	-746	1096	1585	52	58	-12
17411	-604	1112	1565	52	58	-12
17416	-596	1136	1567	52	58	-12
17421	-601	1132	1571	52	58	-12
17426	-617	1140	1598	104	-5	-51
17431	-553	1081	1574	104	-5	-51
17436	-529	1045	1522	104	-5	-51
17441	-482	1021	1481	104	-5	-51
17446	-493	1024	1453	104	-5	-51
17451	-508	1049	1456	104	-5	-51
17456	-528	1066	1477	28	39	-18
17461	-520	1089	1510	28	39	-18
17466	-524	1095	1562	28	39	-18
17471	-561	1128	1615	28	39	-18
17476	-565	1133	1595	28	39	-18
17481	-557	1132	1548	28	39	-18
17486	-563	1113	1530	-22	4	56
17491	-562	1097	1511	-22	4	56
17496	-547	1096	1499	-22	4	56
17501	-541	1086	1514	-22	4	56
17506	-533	1074	1507	-22	4	56
17511	-576	1110	1491	-22	4	56
17516	-564	1123	1527	-22	4	56
17521	-566	1107	1542	-36	15	-24
17526	-567	1101	1529	-36	15	-24
17531	-564	1113	1513	-36	15	-24
17536	-568	1101	1517	-36	15	-24
17541	-573	1085	1529	-36	15	-24
17546	-577	1070	1499	-36	15	-24
17551	-572	1074	1509	-73	52	-20
17556	-579	1096	1542	-73	52	-20
17561	-561	1105	1547	-73	52	-20
17566	-566	1098	1557	-73	52	-20
17571	-568	1101	1545	-73	52	-20
17576	-581	1099	1554	-73	52	-20
17581	-580	1118	1513	-54	25	-68
17586	-569	1115	1493	-54	25	-68
17591	-568	1130	1501	-54	25	-68
17596	-567	1116	1497	-54	25	-68
17601	-569	1117	1510	-54	25	-68
17606	-572	1141	1512	-54	25	-68
17611	-574	1135	1544	-70	52	9
17616	-574	1120	1528	-70	52	9
17621	-567	1098	1528	-70	52	9
17626	-570	1096	1528	-70	52	9
17631	-577	1106	1546	-70	52	9
17636	-578	1098	1554	-70	52	9
17641	-570	1084	1537	48	-15	34
17646	-570	1076	1527	48	-15	34
17651	-576	1100	1525	48	-15	34
17656	-581	1088	1521	48	-15	34
17661	-585	1082	1508	48	-15	34
17666	-575	1081	1489	48	-15	34
17671	-579	1099	1492	48	-15	34
17676	-577	1100	1517	53	9	2
17681	-574	1112	1524	53	9	2
17686	-570	1099	1519	53	9	2
17691	-576	1112	1509	53	9	2
17696	-563	1130	1521	53	9	2
17701	-571	1134	1546	53	9	2
17706	-559	1129	1529	34	28	55
17711	-566	1126	1511	34	28	55
17716	-584	1127	1516	34	28	55
17721	-571	1135	1511	34	28	55
17726	-574	1130	1513	34	28	55
17731	-563	1116	1508	34	28	55
17736	-570	1123	1501	35	0	-56
17741	-570	1124	1507	35	0	-56
17746	-572	1114	1511	35	0	-56
17751	-585	1119	1502	35	0	-56
17756	-576	1139	1517	35	0	-56
17761	-568	1139	1511	35	0	-56
17766	-564	1142	1522	-48	-8	-40
17771	-566	1135	1522	-48	-8	-40
17776	-566	1127	1508	-48	-8	-40
17781	-568	1124	1496	-48	-8	-40
17786	-577	1125	1502	-48	-8	-40
17791	-573	1131	1509	-48	-8	-40
17796	-567	1131	1515	-32	39	7
17801	-565	1129	1499	-32	39	7
17806	-566	1124	1502	-32	39	7
17811	-577	1127	1502	-32	39	7
17816	-566	1129	1505	-32	39	7
17821	-558	1138	1523	-32	39	7
17826	-571	1131	1517	-32	39	7
17831	-571	1147	1513	-29	-6	50
17836	-569	1125	1495	-29	-6	50
17841	-568	1135	1468	-29	-6	50
17846	-569	1129	1484	-29	-6	50
17851	-538	1114	1486	-29	-6	50
17856	-584	1111	1484	-29	-6	50
17861	-586	1147	1507	-82	30	-65
17866	-579	1141	1512	-82	30	-65
17871	-568	1142	1510	-82	30	-65
17876	-574	1124	1518	-82	30	-65
17881	-558	1115	1536	-82	30	-65
17886	-542	1120	1509	-82	30	-65
17891	-508	1090	1493	20	-130	-14
17896	-509	1086	1504	20	-130	-14
17901	-492	1096	1492	20	-130	-14
17906	-562	1120	1481	20	-130	-14
17911	-530	1169	1543	20	-130	-14
17916	-574	1146	1549	20	-130	-14
17921	-582	1160	1538	45	-2	48
17926	-584	1149	1501	45	-2	48
17931	-552	1145	1515	45	-2	48
17936	-572	1156	1522	45	-2	48
17941	-586	1157	1512	45	-2	48
17946	-597	1167	1513	45	-2	48
17951	-574	1151	1516	-9	24	61
17956	-557	1135	1514	-9	24	61
17961	-564	1125	1509	-9	24	61
17966	-559	1131	1503	-9	24	61
17971	-562	1137	1507	-9	24	61
17976	-560	1132	1474	-9	24	61
17981	-557	1146	1473	-9	24	61
17986	-559	1146	1505	-71	8	14
17991	-556	1147	1492	-71	8	14
17996	-555	1159	1495	-71	8	14
18001	-538	1166	1509	-71	8	14
18006	-488	1118	1512	-71	8	14
18011	-530	1138	1529	-71	8	14
18016	-543	1145	1506	-75	-2	-35
18021	-521	1136	1482	-75	-2	-35
18026	-545	1139	1489	-75	-2	-35
18031	-577	1150	1497	-75	-2	-35
18036	-547	1127	1467	-75	-2	-35
18041	-576	1145	1508	-75	-2	-35
18046	-607	1159	1500	-114	7	62
18051	-597	1163	1506	-114	7	62
18056	-606	1145	1542	-114	7	62
18061	-563	1137	1525	-114	7	62
18066	-556	1114	1527	-114	7	62
18071	-555	1133	1521	-114	7	62
18076	-562	1134	1508	-59	34	-32
18081	-549	1133	1512	-59	34	-32
18086	-557	1134	1508	-59	34	-32
18091	-553	1131	1492	-59	34	-32
18096	-547	1135	1509	-59	34	-32
18101	-560	1133	1510	-59	34	-32
18106	-546	1126	1506	-58	60	-121
18111	-553	1126	1507	-58	60	-121
18116	-554	1140	1505	-58	60	-121
18121	-556	1124	1503	-58	60	-121
18126	-554	1139	1515	-58	60	-121
18131	-554	1155	1521	-58	60	-121
18136	-551	1160	1511	-58	60	-121
18141	-543	1151	1494	-51	-2	8
18146	-545	1152	1495	-51	-2	8
18151	-547	1158	1492	-51	-2	8
18156	-544	1145	1499	-51	-2	8
18161	-548	1153	1496	-51	-2	8
18166	-536	1157	1517	-51	-2	8
18171	-550	1140	1508	-140	4	2
18176	-543	1151	1509	-140	4	2
18181	-552	1125	1509	-140	4	2
18186	-554	1135	1501	-140	4	2
18191	-556	1125	1498	-140	4	2
18196	-554	1114	1514	-140	4	2
18201	-558	1120	1504	-35	37	-29
18206	-548	1124	1500	-35	37	-29
18211	-552	1126	1500	-35	37	-29
18216	-558	1137	1505	-35	37	-29
18221	-550	1129	1519	-35	37	-29
18226	-549	1134	1522	-35	37	-29
18231	-538	1127	1522	-26	5	-81
18236	-545	1138	1516	-26	5	-81
18241	-549	1149	1512	-26	5	-81
18246	-545	1121	1513	-26	5	-81
18251	-558	1128	1501	-26	5	-81
18256	-549	1141	1511	-26	5	-81
18261	-545	1135	1502	-55	7	-15
18266	-546	1136	1485	-55	7	-15
18271	-547	1135	1501	-55	7	-15
18276	-537	1148	1517	-55	7	-15
18281	-556	1142	1519	-55	7	-15
18286	-543	1136	1516	-55	7	-15
18291	-555	1151	1505	-55	7	-15
18296	-548	1151	1501	-25	43	-102
18301	-547	1133	1493	-25	43	-102
18306	-540	1131	1478	-25	43	-102
18311	-544	1142	1504	-25	43	-102
18316	-538	1144	1511	-25	43	-102
18321	-551	1153	1509	-25	43	-102
18326	-551	1152	1508	-74	-16	81
18331	-545	1144	1509	-74	-16	81
18336	-538	1135	1520	-74	-16	81
18341	-550	1128	1509	-74	-16	81
18346	-547	1138	1500	-74	-16	81
18351	-548	1155	1504	-74	-16	81
18356	-555	1170	1503	-65	2	43
18361	-582	1189	1509	-65	2	43
18366	-563	1173	1510	-65	2	43
18371	-537	1141	1509	-65	2	43
18376	-545	1140	1499	-65	2	43
18381	-540	1134	1524	-65	2	43
18386	-546	1135	1515	-52	-12	7
18391	-528	1131	1507	-52	-12	7
18396	-510	1116	1507	-52	-12	7
18401	-533	1121	1517	-52	-12	7
18406	-529	1119	1503	-52	-12	7
18411	-546	1126	1509	-52	-12	7
18416	-543	1130	1497	1	11	36
18421	-542	1123	1495	1	11	36
18426	-547	1127	1515	1	11	36
18431	-538	1130	1508	1	11	36
18436	-535	1144	1507	1	11	36
18441	-537	1157	1510	1	11	36
18446	-537	1154	1506	1	11	36
18451	-540	1160	1489	-25	17	4
18456	-540	1174	1486	-25	17	4
18461	-535	1165	1475	-25	17	4
18466	-536	1153	1494	-25	17	4
18471	-534	1174	1502	-25	17	4
18476	-531	1163	1507	-25	17	4
18481	-530	1171	1522	-28	31	48
18486	-527	1174	1504	-28	31	48
18491	-535	1161	1508	-28	31	48
18496	-522	1156	1506	-28	31	48
18501	-538	1164	1509	-28	31	48
18506	-544	1152	1507	-28	31	48
18511	-532	1168	1488	11	52	-102
18516	-541	1168	1488	11	52	-102
18521	-574	1196	1497	11	52	-102
18526	-559	1178	1502	11	52	-102
18531	-549	1178	1516	11	52	-102
18536	-533	1168	1499	11	52	-102
18541	-539	1183	1504	-17	13	75
18546	-514	1163	1506	-17	13	75
18551	-524	1145	1498	-17	13	75
18556	-516	1159	1488	-17	13	75
18561	-528	1162	1495	-17	13	75
18566	-530	1160	1497	-17	13	75
18571	-537	1176	1507	-68	13	52
18576	-526	1177	1497	-68	13	52
18581	-524	1166	1506	-68	13	52
18586	-519	1166	1510	-68	13	52
18591	-538	1183	1512	-68	13	52
18596	-539	1180	1482	-68	13	52
18601	-542	1155	1480	-68	13	52
18606	-536	1157	1469	-51	27	-5
18611	-535	1154	1477	-51	27	-5
18616	-548	1147	1469	-51	27	-5
18621	-532	1145	1491	-51	27	-5
18626	-541	1145	1499	-51	27	-5
18631	-531	1149	1527	-51	27	-5
18636	-526	1154	1530	-60	9	-23
18641	-540	1151	1514	-60	9	-23
18646	-536	1164	1514	-60	9	-23
18651	-532	1162	1497	-60	9	-23
18656	-536	1158	1488	-60	9	-23
18661	-526	1174	1469	-60	9	-23
18666	-533	1170	1488	-119	96	-40
18671	-528	1166	1503	-119	96	-40
18676	-525	1167	1530	-119	96	-40
18681	-535	1158	1525	-119	96	-40
18686	-533	1153	1520	-119	96	-40
18691	-539	1150	1510	-119	96	-40
18696	-526	1159	1501	-58	47	-12
18701	-533	1148	1500	-58	47	-12
18706	-540	1137	1489	-58	47	-12
18711	-536	1146	1485	-58	47	-12
18716	-538	1151	1484	-58	47	-12
18721	-545	1161	1497	-58	47	-12
18726	-546	1144	1480	-64	8	7
18731	-541	1151	1479	-64	8	7
18736	-533	1161	1488	-64	8	7
18741	-534	1156	1482	-64	8	7
18746	-529	1155	1484	-64	8	7
18751	-534	1177	1471	-64	8	7
18756	-539	1172	1502	-64	8	7
18761	-533	1164	1524	-35	-3	20
18766	-523	1165	1527	-35	-3	20
18771	-527	1174	1528	-35	-3	20
18776	-527	1175	1536	-35	-3	20
18781	-532	1175	1511	-35	-3	20
18786	-539	1153	1486	-35	-3	20
18791	-530	1156	1484	-55	-20	70
18796	-529	1147	1465	-55	-20	70
18801	-527	1162	1472	-55	-20	70
18806	-534	1157	1496	-55	-20	70
18811	-540	1167	1507	-55	-20	70
18816	-532	1173	1513	-55	-20	70
18821	-525	1183	1528	-83	-39	-84
18826	-520	1163	1525	-83	-39	-84
18831	-525	1162	1515	-83	-39	-84
18836	-542	1151	1509	-83	-39	-84
18841	-532	1135	1492	-83	-39	-84
18846	-541	1143	1492	-83	-39	-84
18851	-531	1147	1498	-91	35	-17
18856	-532	1144	1497	-91	35	-17
18861	-528	1153	1500	-91	35	-17
18866	-530	1145	1519	-91	35	-17
18871	-529	1146	1532	-91	35	-17
18876	-534	1144	1520	-91	35	-17
18881	-531	1135	1495	-44	-29	-20
18886	-533	1144	1490	-44	-29	-20
18891	-532	1133	1493	-44	-29	-20
18896	-532	1129	1489	-44	-29	-20
18901	-524	1137	1517	-44	-29	-20
18906	-531	1154	1516	-44	-29	-20
18911	-523	1156	1524	-44	-29	-20
18916	-525	1148	1527	94	1181	584
18921	-529	1144	1512	94	1181	584
18926	-534	1140	1498	94	1181	584
17866	-65	-857	-7	94	1181	584
17871	15	-704	-69	94	1181	584
17876	377	-1236	-852	94	1181	584
17881	621	-1193	-946	94	1181	584
17886	362	-346	1210	94	1181	584
17891	-395	-977	1965	94	1181	584
17896	-345	-1639	1655	94	1181	584
17901	-284	-1725	1766	94	1181	584
17906	-498	-1655	1678	94	1181	584
17911	-495	-1570	1876	94	1181	584
17916	-339	-1719	1705	94	1181	584
17921	-184	-1834	1538	94	1181	584
17926	-151	-1866	1177	94	1181	584
17931	55	-1543	476	94	1181	584
17936	420	-1907	1125	94	1181	584
17941	292	-2274	1393	94	1181	584
17946	-174	-3860	2571	94	1181	584
17951	-865	-4083	1994	94	1181	584
17956	-1145	-4990	1074	94	1181	584
17961	795	-962	-1002	94	1181	584
17966	1477	-852	-395	94	1181	584
17971	1286	-1276	-1131	94	1181	584
17976	1273	-1651	-1397	94	1181	584
17981	1269	-2103	-1203	94	1181	584
17986	1143	-2441	-1033	94	1181	584
17991	1049	-2711	-523	94	1181	584
17996	757	-3286	495	94	1181	584
18001	385	-3767	860	94	1181	584
18006	444	-3648	692	94	1181	584
18011	599	-3222	597	94	1181	584
18016	645	-2911	132	94	1181	584
18021	879	-2924	-893	94	1181	584
18026	728	-3054	-1305	94	1181	584
18031	460	-3021	-934	94	1181	584
18036	361	-2819	-363	94	1181	584
18041	268	-2638	141	94	1181	584
18046	61	-2503	647	94	1181	584
18051	-49	-2381	926	94	1181	584
18056	-86	-2148	870	94	1181	584
18061	-81	-1938	743	94	1181	584
18066	-63	-1587	666	94	1181	584
18071	77	-1205	588	94	1181	584
18076	141	-873	586	94	1181	584
18081	229	-608	668	94	1181	584
18086	179	-460	842	94	1181	584
18091	47	-385	1192	94	1181	584
18096	-50	-409	1734	94	1181	584
18101	-280	-503	2266	94	1181	584
18106	-401	-536	2446	94	1181	584
18111	-303	-574	2410	94	1181	584
18116	-145	-564	2224	94	1181	584
18121	-104	-544	1905	94	1181	584
18126	-103	-398	1665	94	1181	584
18131	-82	-285	1492	94	1181	584
18136	-72	-222	1461	94	1181	584
18141	-78	-235	1450	94	1181	584
18146	-135	-269	1401	94	1181	584
18151	-174	-355	1336	94	1181	584
18156	-204	-506	1217	94	1181	584
18161	-259	-659	1086	94	1181	584
18166	-352	-750	1106	94	1181	584
18171	-420	-834	1248	94	1181	584
18176	-397	-857	1384	94	1181	584
18181	-327	-741	1521	94	1181	584
18186	-340	-546	1635	94	1181	584
18191	-334	-398	1772	94	1181	584
18196	-315	-234	1876	94	1181	584
18201	-287	-85	1953	94	1181	584
18206	-229	68	1966	94	1181	584
18211	-206	180	2014	94	1181	584
18216	-188	261	2071	94	1181	584
18221	-224	223	2145	94	1181	584
18226	-354	-11	2406	94	1181	584
18231	-512	-260	2650	94	1181	584
18236	-563	-448	2797	94	1181	584
18241	-524	-519	2662	94	1181	584
18246	-461	-436	2481	94	1181	584
18251	-379	-290	2285	94	1181	584
18256	-319	-171	2143	94	1181	584
18261	-260	-66	2034	94	1181	584
18266	-210	22	1886	94	1181	584
18271	-154	19	1702	94	1181	584
18276	-178	-84	1587	94	1181	584
18281	-297	-147	1606	94	1181	584
18286	-405	-128	1676	94	1181	584
18291	-426	-158	1801	94	1181	584
18296	-446	-222	1982	94	1181	584
18301	-438	-281	2152	94	1181	584
18306	-440	-310	2282	94	1181	584
18311	-415	-311	2335	94	1181	584
18316	-359	-292	2335	94	1181	584
18321	-290	-225	2440	94	1181	584
18326	-187	-81	2653	94	1181	584
18331	-286	-22	2499	94	1181	584
18336	-330	-15	2423	94	1181	584
18341	-253	-7	2536	94	1181	584
18346	-180	-7	2577	94	1181	584
18351	-276	50	2461	94	1181	584
18356	-408	60	2370	94	1181	584
18361	-441	92	2205	94	1181	584
18366	-334	136	1986	94	1181	584
18371	-300	143	1812	94	1181	584
18376	-399	31	1716	94	1181	584
18381	-529	-77	1719	94	1181	584
18386	-625	-222	1961	94	1181	584
18391	-627	-468	2302	94	1181	584
18396	-619	-686	2486	94	1181	584
18401	-597	-755	2450	94	1181	584
18406	-509	-875	2355	94	1181	584
18411	77	-234	2204	94	1181	584
18416	1018	842	923	94	1181	584
18421	-118	-600	-1029	94	1181	584
18426	-298	-1714	2726	94	1181	584
18431	-970	-892	2012	94	1181	584
18436	-682	-965	2063	94	1181	584
18441	-515	-601	1996	94	1181	584
18446	-437	-509	1957	94	1181	584
18451	-333	-437	1963	94	1181	584
18456	-470	-419	1787	94	1181	584
18461	-593	-523	1846	94	1181	584
18466	-296	-472	1898	94	1181	584
18471	-244	-659	1630	94	1181	584
18476	-214	-786	1490	94	1181	584
18481	-325	-724	1436	94	1181	584
18486	-294	-575	1480	94	1181	584
18491	2484	-19	668	94	1181	584
18496	590	-391	880	94	1181	584
18501	567	-1211	939	94	1181	584
18506	908	-1064	779	94	1181	584
18511	900	-605	41	94	1181	584
18516	1040	-1003	995	94	1181	584
18521	805	-1124	1291	94	1181	584
18526	557	-1298	1751	94	1181	584
18531	227	-1369	2278	94	1181	584
18536	-251	-1519	2994	94	1181	584
18541	-645	-1716	3388	94	1181	584
18546	-907	-1877	3414	94	1181	584
18551	-1015	-1800	3096	94	1181	584
18556	-962	-1536	2666	94	1181	584
18561	-886	-1169	2248	94	1181	584
18566	-817	-653	1893	94	1181	584
18571	-765	-61	1758	94	1181	584
18576	-812	461	1700	94	1181	584
18581	-957	632	1765	94	1181	584
18586	-1062	628	1767	94	1181	584
18591	-1087	569	1748	94	1181	584
18596	-1124	550	1884	94	1181	584
18601	-1114	518	1797	94	1181	584
18606	-1125	304	1775	94	1181	584
18611	-1123	30	1769	94	1181	584
18616	-1273	-253	1644	94	1181	584
18621	-1154	-494	1679	94	1181	584
18626	-874	-602	1664	94	1181	584
18631	-690	-496	1538	94	1181	584
18636	-648	-461	1421	94	1181	584
18641	-706	-356	1298	94	1181	584
18646	-751	-261	1301	94	1181	584
18651	-837	-187	1459	94	1181	584
18656	-892	-202	2003	94	1181	584
18661	-894	-468	2062	94	1181	584
18666	-920	-517	1675	94	1181	584
18671	-986	-495	1369	94	1181	584
18676	-1059	-569	1241	94	1181	584
18681	-1062	-603	1287	94	1181	584
18686	-909	-582	1409	94	1181	584
18691	-651	-368	1434	94	1181	584
18696	-721	-59	987	94	1181	584
18701	-944	-3	738	94	1181	584
18706	-1136	-294	771	94	1181	584
18711	-1268	-456	901	94	1181	584
18716	-1390	-579	1081	94	1181	584
18721	-1610	-676	1097	94	1181	584
18726	-1711	-776	976	94	1181	584
18731	-1651	-632	909	94	1181	584
18736	-1516	-487	887	94	1181	584
18741	-1425	-391	851	94	1181	584
18746	-1509	-288	862	94	1181	584
18751	-1528	-350	997	94	1181	584
18756	-1575	-459	1005	94	1181	584
18761	-1694	-590	1022	94	1181	584
18766	-1731	-732	1001	94	1181	584
18771	-1742	-662	907	94	1181	584
18776	-1652	-514	824	94	1181	584
18781	-1757	-347	778	94	1181	584
18786	-1592	-423	688	94	1181	584
18791	-1580	-586	689	94	1181	584
18796	-1690	-742	606	94	1181	584
18801	-1707	-865	596	94	1181	584
18806	-1696	-916	671	94	1181	584
18811	-1792	-972	706	94	1181	584
18816	-1831	-1021	710	94	1181	584
18821	-1819	-1026	627	94	1181	584
18826	-1781	-910	620	94	1181	584
18831	-1754	-800	664	94	1181	584
18836	-1856	-703	667	94	1181	584
18841	-1863	-694	603	94	1181	584
18846	-1804	-561	633	94	1181	584
18851	-1796	-434	626	94	1181	584
18856	-1777	-412	627	94	1181	584
18861	-1864	-492	605	94	1181	584
18866	-1867	-638	591	94	1181	584
18871	-1876	-736	499	94	1181	584
18876	-1932	-876	421	94	1181	584
18881	-1967	-954	334	94	1181	584
18886	-1986	-962	284	94	1181	584
18891	-2057	-968	355	94	1181	584
18896	-2100	-891	314	94	1181	584
18901	-2056	-816	235	94	1181	584
18906	-1972	-682	133	94	1181	584
18911	-1891	-582	117	94	1181	584
18916	-1649	-381	42	94	1181	584
18921	-1861	-375	54	94	1181	584
18926	-1871	-356	78	94	1181	584
18931	-1961	-532	135	94	1181	584
18936	-2014	-688	141	94	1181	584
18941	-2022	-709	10	94	1181	584
18946	-2085	-819	-29	394	684	1291
18951	-2111	-670	-22	394	684	1291
18956	-2022	-682	-24	394	684	1291
18961	-2024	-526	56	394	684	1291
18966	-2014	-539	69	394	684	1291
18971	-1911	-549	94	394	684	1291
18976	-2146	-562	-3	459	354	1816
18981	-2133	-647	70	459	354	1816
18986	-2053	-535	-4	459	354	1816
18991	-2012	-636	-143	459	354	1816
18996	-2005	-761	-207	459	354	1816
19001	-2110	-753	-246	459	354	1816
19006	-2135	-668	-211	1336	-396	2451
19011	-1978	-483	-218	1336	-396	2451
19016	-1820	-308	-258	1336	-396	2451
19021	-1736	-54	-66	1336	-396	2451
19026	-1750	316	3	1336	-396	2451
19031	-1819	680	143	1336	-396	2451
19036	-1862	775	255	1722	-127	1603
19041	-1837	783	232	1722	-127	1603
19046	-1892	582	121	1722	-127	1603
19051	-1957	99	-106	1722	-127	1603
19056	-2093	-451	-253	1722	-127	1603
19061	-2303	-645	-306	1722	-127	1603
19066	-2415	-664	-93	1722	-127	1603
19071	-2530	-341	57	1009	-296	1860
19076	-2152	-105	-230	1009	-296	1860
19081	-1731	-326	-471	1009	-296	1860
19086	-1561	-69	-243	1009	-296	1860
19091	-1834	42	91	1009	-296	1860
19096	-2619	116	344	1009	-296	1860
19101	-2786	335	37	2864	-2454	1687
19106	-2313	196	-18	2864	-2454	1687
19111	-1621	384	-390	2864	-2454	1687
19116	-1397	305	-423	2864	-2454	1687
19121	-1463	373	-215	2864	-2454	1687
19126	-1779	564	-46	2864	-2454	1687
19131	-1837	901	69	7932	-2304	2155
19136	-1787	764	164	7932	-2304	2155
19141	-1912	665	452	7932	-2304	2155
19146	-2159	607	862	7932	-2304	2155
19151	-2777	1000	1047	7932	-2304	2155
19156	-2184	1708	520	7932	-2304	2155
19161	-1907	1254	25	1706	249	-1775
19166	-2024	1598	-318	1706	249	-1775
19171	-2139	1523	-291	1706	249	-1775
19176	-2141	1574	-44	1706	249	-1775
19181	-2026	1923	162	1706	249	-1775
19186	-1795	1740	413	1706	249	-1775
19191	-1466	1112	753	1669	214	-2657
19196	-1552	1071	393	1669	214	-2657
