time	accelerometer_x	accelerometer_y	accelerometer_z	gyroscope_x	gyroscope_y	gyroscope_z
12986	-1603	1096	529	-13	15	-77
12991	-1611	1113	516	-517	8775	10449
12996	-1612	1114	529	-517	8775	10449
13001	-1602	1122	538	-517	8775	10449
13351	2254	-61	-88	-517	8775	10449
13356	2251	-59	-93	-517	8775	10449
13361	2250	-54	-83	-517	8775	10449
13366	2247	-51	-90	-2179	7825	11295
13371	2242	-49	-82	-2179	7825	11295
13376	2243	-53	-76	-2179	7825	11295
13381	2249	-57	-82	-2179	7825	11295
13386	2239	-51	-82	-2179	7825	11295
13391	2237	-45	-64	-2179	7825	11295
13396	2241	-48	-72	-3732	5653	12237
13401	2232	-42	-92	-3732	5653	12237
13406	2242	-46	-85	-3732	5653	12237
13411	2234	-41	-95	-3732	5653	12237
13416	2235	-45	-88	-3732	5653	12237
13421	2232	-45	-68	-3732	5653	12237
13426	2228	-47	-89	-4751	2280	13350
13431	2236	-47	-91	-4751	2280	13350
13436	2240	-57	-73	-4751	2280	13350
13441	2238	-56	-86	-4751	2280	13350
13446	2232	-59	-99	-4751	2280	13350
13451	2239	-57	-90	-4751	2280	13350
13456	2235	-59	-90	-4887	-1834	13342
13461	2237	-62	-84	-4887	-1834	13342
13466	2242	-63	-105	-4887	-1834	13342
13471	2243	-64	-96	-4887	-1834	13342
13476	2240	-60	-92	-4887	-1834	13342
13481	2243	-54	-109	-4887	-1834	13342
13486	2245	-63	-114	-4887	-1834	13342
13491	2244	-61	-111	-26358	3751	-10102
13496	2233	-59	-117	-26358	3751	-10102
13501	2238	-61	-132	-26358	3751	-10102
13506	2231	-57	-139	-26358	3751	-10102
13511	2233	-52	-129	-26358	3751	-10102
13516	-8140	658	480	-26358	3751	-10102
13521	748	-1683	-1458	1439	5023	510
13526	853	-946	-2891	1439	5023	510
13531	1039	-139	-2458	1439	5023	510
13536	1895	313	-2214	1439	5023	510
13541	1941	-394	-2437	1439	5023	510
13546	1766	-1290	-3618	1439	5023	510
13551	3412	-2107	-6149	-5708	-3176	1600
13556	4568	-3688	-5843	-5708	-3176	1600
13561	2135	-2011	-6281	-5708	-3176	1600
13566	2218	-921	-6250	-5708	-3176	1600
13571	1846	125	-4114	-5708	-3176	1600
13576	1310	367	-1621	-5708	-3176	1600
13581	641	545	-137	-2942	4206	606
13586	872	803	542	-2942	4206	606
13591	1196	1016	1064	-2942	4206	606
13596	1718	1423	1606	-2942	4206	606
13601	2021	1870	2305	-2942	4206	606
13606	2293	1733	2011	-2942	4206	606
13611	2504	1268	1213	-1183	3693	950
13616	2669	1033	-125	-1183	3693	950
13621	2789	1025	-1271	-1183	3693	950
13626	2370	1312	-2564	-1183	3693	950
13631	2221	1551	-3405	-1183	3693	950
13636	2106	1635	-3591	-1183	3693	950
13641	2087	1506	-3311	-1183	3693	950
13646	2282	1465	-3236	-1140	116	688
13651	2519	1703	-3525	-1140	116	688
13656	2120	2041	-3886	-1140	116	688
13661	1828	2443	-4104	-1140	116	688
13666	1989	2724	-4082	-1140	116	688
13671	2268	2788	-3634	-1140	116	688
13676	2426	2892	-3302	-39	-1402	-676
13681	2502	3112	-3170	-39	-1402	-676
13686	2647	3363	-3325	-39	-1402	-676
13691	2642	3460	-3749	-39	-1402	-676
13696	2627	3494	-4186	-39	-1402	-676
13701	2671	3672	-4437	-39	-1402	-676
13706	2758	3961	-4535	-406	-4258	-5160
13711	2996	4320	-4227	-406	-4258	-5160
13716	3318	4703	-3971	-406	-4258	-5160
13721	3723	4901	-3917	-406	-4258	-5160
13726	4079	4826	-3926	-406	-4258	-5160
13731	3952	4424	-3913	-406	-4258	-5160
13736	3874	4199	-3946	-1160	-8734	-7899
13741	4027	3876	-4119	-1160	-8734	-7899
13746	4190	3591	-4223	-1160	-8734	-7899
13751	4485	3196	-4066	-1160	-8734	-7899
13756	4829	2671	-3580	-1160	-8734	-7899
13761	5260	2118	-3005	-1160	-8734	-7899
13766	5173	1613	-2751	-3256	-8997	-10587
13771	4911	1098	-2293	-3256	-8997	-10587
13776	3627	455	-1396	-3256	-8997	-10587
13781	2627	-47	-302	-3256	-8997	-10587
13786	2340	-113	-59	-3256	-8997	-10587
13791	2328	-107	-64	-3256	-8997	-10587
13796	2316	-95	-72	-3256	-8997	-10587
13801	2311	-103	-77	-4838	-6035	-12436
13806	2302	-99	-75	-4838	-6035	-12436
13811	2298	-96	-89	-4838	-6035	-12436
13816	2293	-96	-93	-4838	-6035	-12436
13821	2281	-99	-104	-4838	-6035	-12436
13826	2272	-99	-120	-4838	-6035	-12436
13831	2266	-98	-128	-5741	-1575	-13580
13836	2265	-98	-114	-5741	-1575	-13580
13841	2251	-97	-126	-5741	-1575	-13580
13846	2244	-87	-123	-5741	-1575	-13580
13851	2234	-80	-141	-5741	-1575	-13580
13856	2228	-83	-141	-5741	-1575	-13580
13861	2218	-70	-144	-5484	3271	-13388
13866	2221	-69	-149	-5484	3271	-13388
13871	2206	-59	-151	-5484	3271	-13388
13876	2203	-54	-153	-5484	3271	-13388
13881	2196	-40	-158	-5484	3271	-13388
13886	2198	-36	-161	-5484	3271	-13388
13891	2198	-30	-154	-4278	7187	-11567
13896	2199	-16	-159	-4278	7187	-11567
13901	2203	-9	-157	-4278	7187	-11567
13906	2195	-12	-161	-4278	7187	-11567
13911	2201	4	-144	-4278	7187	-11567
13916	2197	4	-157	-4278	7187	-11567
13921	2207	13	-160	-2535	9567	-9752
13926	2214	15	-141	-2535	9567	-9752
13931	2212	16	-134	-2535	9567	-9752
13936	2219	28	-144	-2535	9567	-9752
13941	2216	15	-134	-2535	9567	-9752
13946	2225	23	-142	-2535	9567	-9752
13951	2222	25	-130	-2535	9567	-9752
13956	2227	27	-117	-955	10497	-8695
13961	2233	38	-117	-955	10497	-8695
13966	2231	35	-113	-955	10497	-8695
13971	2238	32	-98	-955	10497	-8695
13976	2229	44	-97	-955	10497	-8695
13981	2226	37	-90	-955	10497	-8695
13986	2226	28	-75	-16485	-2453	-4
13991	2215	19	-76	-16485	-2453	-4
13996	-4011	24327	21727	-16485	-2453	-4
14001	-1564	-624	822	-16485	-2453	-4
14006	142	-537	435	-16485	-2453	-4
14011	425	150	-1818	-16485	-2453	-4
14016	463	-14	-203	-1317	-1094	-1709
14021	1013	-438	1712	-1317	-1094	-1709
14026	1764	-517	2064	-1317	-1094	-1709
14031	1606	-779	2094	-1317	-1094	-1709
14036	1097	-1183	2874	-1317	-1094	-1709
14041	872	-1797	3478	-1317	-1094	-1709
14046	733	-1948	2896	-5174	-2812	-489
14051	465	-1994	1488	-5174	-2812	-489
14056	371	-1532	-273	-5174	-2812	-489
14061	454	-770	-1660	-5174	-2812	-489
14066	653	-709	-2256	-5174	-2812	-489
14071	786	-876	-2102	-5174	-2812	-489
14076	985	-1057	-1515	-6470	-2820	-3276
14081	1326	-983	-899	-6470	-2820	-3276
14086	1630	-697	-382	-6470	-2820	-3276
14091	1683	-209	344	-6470	-2820	-3276
14096	1968	135	1118	-6470	-2820	-3276
14101	2101	263	1574	-6470	-2820	-3276
14106	1937	-38	1685	-6470	-2820	-3276
14111	1745	-559	1546	-4374	1457	-6631
14116	1598	-1138	1280	-4374	1457	-6631
14121	1494	-1599	977	-4374	1457	-6631
14126	1670	-1847	406	-4374	1457	-6631
14131	2116	-1818	19	-4374	1457	-6631
14136	2461	-1792	-193	-4374	1457	-6631
14141	3533	-2364	-402	-293	-947	-721
14146	6052	-4502	-1569	-293	-947	-721
14151	5753	-6748	-1702	-293	-947	-721
14156	1411	-5891	228	-293	-947	-721
14161	1338	-5375	818	-293	-947	-721
14166	2174	-5217	787	-293	-947	-721
14171	2261	-4484	598	350	-255	433
14176	2365	-3872	508	350	-255	433
14181	2435	-4012	511	350	-255	433
14186	2288	-4589	718	350	-255	433
14191	2221	-5059	976	350	-255	433
14196	2291	-5304	1126	350	-255	433
14201	2291	-5367	1174	-266	-409	4965
14206	2396	-5271	985	-266	-409	4965
14211	2649	-5264	608	-266	-409	4965
14216	2854	-5586	241	-266	-409	4965
14221	3132	-5927	-23	-266	-409	4965
14226	3373	-6016	-186	-266	-409	4965
14231	3726	-5935	-144	1782	1033	8908
14236	3998	-5500	148	1782	1033	8908
14241	4155	-4988	441	1782	1033	8908
14246	4091	-4900	705	1782	1033	8908
14251	4128	-4880	776	1782	1033	8908
14256	4212	-4721	734	1782	1033	8908
14261	4407	-4418	686	1782	1033	8908
14266	4340	-4123	729	3000	4195	12751
14271	3959	-3822	402	3000	4195	12751
14276	4126	-3569	199	3000	4195	12751
14281	3687	-2648	126	3000	4195	12751
14286	3384	-1512	80	3000	4195	12751
14291	2770	-481	14	3000	4195	12751
14296	2299	-44	-127	1704	6163	12116
14301	2265	-50	-138	1704	6163	12116
14306	2264	-57	-121	1704	6163	12116
14311	2262	-53	-107	1704	6163	12116
14316	2266	-62	-105	1704	6163	12116
14321	2261	-71	-99	1704	6163	12116
14326	2264	-67	-97	225	7054	11841
14331	2261	-64	-91	225	7054	11841
14336	2262	-73	-80	225	7054	11841
14341	2258	-57	-101	225	7054	11841
14346	2252	-70	-100	225	7054	11841
14351	2257	-74	-96	225	7054	11841
14356	2259	-63	-89	-1303	6633	12058
14361	2262	-60	-94	-1303	6633	12058
14366	2258	-53	-89	-1303	6633	12058
14371	2254	-52	-92	-1303	6633	12058
14376	2250	-53	-100	-1303	6633	12058
14381	2251	-60	-89	-1303	6633	12058
14386	2245	-53	-99	-2671	5053	12531
14391	2244	-60	-86	-2671	5053	12531
14396	2249	-48	-92	-2671	5053	12531
14401	2243	-47	-85	-2671	5053	12531
14406	2243	-48	-95	-2671	5053	12531
14411	2240	-43	-87	-2671	5053	12531
14416	2242	-55	-104	-2671	5053	12531
14421	2232	-55	-94	-3663	2523	13313
14426	2240	-50	-102	-3663	2523	13313
14431	2250	-51	-90	-3663	2523	13313
14436	2237	-52	-93	-3663	2523	13313
14441	2242	-49	-92	-3663	2523	13313
14446	2244	-52	-105	-3663	2523	13313
14451	2238	-51	-100	-3952	-575	13403
14456	2249	-54	-98	-3952	-575	13403
14461	2244	-50	-100	-3952	-575	13403
14466	2239	-65	-102	-3952	-575	13403
14471	2242	-61	-104	-3952	-575	13403
14476	2245	-61	-117	-3952	-575	13403
14481	2240	-63	-111	-3632	-3562	12987
14486	2243	-67	-127	-3632	-3562	12987
14491	2240	-61	-111	-3632	-3562	12987
14496	2236	-66	-105	-3632	-3562	12987
14501	2228	-60	-126	-3632	-3562	12987
14506	2226	-62	-140	-3632	-3562	12987
14511	2221	-52	-124	-21184	8260	-5494
14516	2223	-52	-122	-21184	8260	-5494
14521	2214	-44	-138	-21184	8260	-5494
14526	2200	-39	-122	-21184	8260	-5494
14531	-14871	7338	-1792	-21184	8260	-5494
14536	-5296	-907	2113	-21184	8260	-5494
14541	-2111	-40	538	1421	11208	-480
14546	537	194	86	1421	11208	-480
14551	1162	-511	-1033	1421	11208	-480
14556	2625	-33	-535	1421	11208	-480
14561	3513	-437	-1084	1421	11208	-480
14566	3207	-590	-1456	1421	11208	-480
14571	6520	92	-3430	1421	11208	-480
14576	8236	-13	-4846	-4067	-1302	1250
14581	5752	-1209	-7348	-4067	-1302	1250
14586	1963	-1803	-7922	-4067	-1302	1250
14591	2058	-1229	-7341	-4067	-1302	1250
14596	2458	114	-6558	-4067	-1302	1250
14601	1692	1153	-5465	-4067	-1302	1250
14606	1917	1596	-3961	-1232	376	-166
14611	1908	1678	-2624	-1232	376	-166
14616	1723	1552	-1468	-1232	376	-166
14621	1608	1342	-720	-1232	376	-166
14626	1394	1104	81	-1232	376	-166
14631	1113	1040	523	-1232	376	-166
14636	1169	1104	641	-2652	2099	-973
14641	1326	1127	329	-2652	2099	-973
14646	1260	1116	-420	-2652	2099	-973
14651	1093	1053	-1083	-2652	2099	-973
14656	1426	829	-1575	-2652	2099	-973
14661	1457	506	-1969	-2652	2099	-973
14666	1749	59	-2232	-956	1404	1649
14671	1761	-255	-2342	-956	1404	1649
14676	1812	-336	-2346	-956	1404	1649
14681	1569	-326	-2202	-956	1404	1649
14686	1553	-303	-1860	-956	1404	1649
14691	1785	-233	-1525	-956	1404	1649
14696	1553	-103	-1125	1034	3596	2128
14701	1371	134	-891	1034	3596	2128
14706	1419	421	-882	1034	3596	2128
14711	1816	838	-1227	1034	3596	2128
14716	2151	1351	-1692	1034	3596	2128
14721	2466	1848	-2164	1034	3596	2128
14726	2644	2185	-2721	1034	3596	2128
14731	2580	2355	-3242	1306	-316	1
14736	2422	2415	-3783	1306	-316	1
14741	2471	2472	-4542	1306	-316	1
14746	2561	2520	-5398	1306	-316	1
14751	2517	2425	-6070	1306	-316	1
14756	2440	2427	-6270	1306	-316	1
14761	2801	2602	-6026	955	-4823	-1413
14766	3111	2683	-5568	955	-4823	-1413
14771	3357	2570	-5235	955	-4823	-1413
14776	3591	2206	-5327	955	-4823	-1413
14781	3739	1656	-5719	955	-4823	-1413
14786	3714	1126	-5975	955	-4823	-1413
14791	3853	838	-5962	-1947	-9545	-1401
14796	4105	727	-5486	-1947	-9545	-1401
14801	4342	803	-4824	-1947	-9545	-1401
14806	4446	954	-4370	-1947	-9545	-1401
14811	4515	1039	-4247	-1947	-9545	-1401
14816	4651	1103	-4794	-1947	-9545	-1401
14821	5028	1236	-5434	-6651	-13853	-9075
14826	5578	1488	-5522	-6651	-13853	-9075
14831	6126	1475	-4872	-6651	-13853	-9075
14836	6045	1002	-3611	-6651	-13853	-9075
14841	6194	520	-2075	-6651	-13853	-9075
14846	5058	252	213	-6651	-13853	-9075
14851	4030	88	649	-9293	-7322	-14544
14856	3353	-150	4	-9293	-7322	-14544
14861	3256	-181	-25	-9293	-7322	-14544
14866	3230	-195	-40	-9293	-7322	-14544
14871	3204	-190	-56	-9293	-7322	-14544
14876	3182	-180	-77	-9293	-7322	-14544
14881	3158	-176	-98	-9293	-7322	-14544
14886	3138	-177	-109	-9917	2175	-15979
14891	3116	-163	-112	-9917	2175	-15979
14896	3090	-141	-142	-9917	2175	-15979
14901	3072	-126	-149	-9917	2175	-15979
14906	3063	-114	-155	-9917	2175	-15979
14911	3046	-91	-171	-9917	2175	-15979
14916	3036	-64	-157	-8188	10608	-12317
14921	3025	-39	-164	-8188	10608	-12317
14926	3023	-21	-169	-8188	10608	-12317
14931	3032	10	-155	-8188	10608	-12317
14936	3028	23	-165	-8188	10608	-12317
14941	3042	27	-143	-8188	10608	-12317
14946	3038	52	-147	-5910	14924	-6705
14951	3054	57	-140	-5910	14924	-6705
14956	3063	71	-127	-5910	14924	-6705
14961	3066	71	-113	-5910	14924	-6705
14966	3084	76	-119	-5910	14924	-6705
14971	3083	77	-106	-5910	14924	-6705
14976	3089	83	-92	-4688	16224	-1779
14981	3090	78	-82	-4688	16224	-1779
14986	3099	75	-66	-4688	16224	-1779
14991	3097	69	-61	-4688	16224	-1779
14996	3105	61	-64	-4688	16224	-1779
15001	3096	57	-55	-4688	16224	-1779
15006	3100	52	-46	-4909	15892	3014
15011	3080	43	-34	-4909	15892	3014
15016	3088	47	-42	-4909	15892	3014
15021	3077	45	-26	-4909	15892	3014
15026	3067	29	-35	-4909	15892	3014
15031	3069	30	-22	-4909	15892	3014
15036	3052	28	-27	-4909	15892	3014
